thisN,thisTrialN,thisRepN,trials_2.thisRepN,trials_2.thisTrialN,trials_2.thisN,trials_2.thisIndex,trials.thisRepN,trials.thisTrialN,trials.thisN,trials.thisIndex,trials_3.thisRepN,trials_3.thisTrialN,trials_3.thisN,trials_3.thisIndex,thisRow.t,notes,Init.started,text.started,key_resp.started,Init.stopped,key_resp.keys,key_resp.rt,key_resp.duration,prep.started,text_2.started,text_2.stopped,prep.stopped,run.started,run.stopped,Eyes.started,prog.started,polygon.started,participant,session,date,expName,psychopyVersion,frameRate,expStart,
,,,,,,,,,,,,,,,,,0.01041409999015741,0.022720800014212728,0.022720800014212728,0.9420704999938607,space,0.8595198999973945,None,,,,,,,,,,515518,001,2025-10-23_20h12.43.275,run,2024.2.4,None,2025-10-23 20h12.48.629958 +0800,
0,0,0,0,0,0,0,0,0,0,0,0,0,0,0,2.484623800002737,,,,,,,,,0.9440592000028118,0.9547119000053499,2.484623800002737,2.4643385999952443,2.470237500005169,2.4702923000149895,,,,515518,001,2025-10-23_20h12.43.275,run,2024.2.4,None,2025-10-23 20h12.48.629958 +0800,
1,0,1,0,0,0,0,0,0,0,0,1,0,1,0,2.484623800002737,,,,,,,,,,,,,2.47120209998684,2.471244399988791,,,,515518,001,2025-10-23_20h12.43.275,run,2024.2.4,None,2025-10-23 20h12.48.629958 +0800,
2,0,2,0,0,0,0,0,0,0,0,2,0,2,0,2.484623800002737,,,,,,,,,,,,,2.4720915000070818,2.4721200999920256,,,,515518,001,2025-10-23_20h12.43.275,run,2024.2.4,None,2025-10-23 20h12.48.629958 +0800,
3,0,3,0,0,0,0,0,0,0,0,3,0,3,0,2.484623800002737,,,,,,,,,,,,,2.473074000008637,2.4730997000006028,,,,515518,001,2025-10-23_20h12.43.275,run,2024.2.4,None,2025-10-23 20h12.48.629958 +0800,
4,0,4,0,0,0,0,0,0,0,0,4,0,4,0,2.484623800002737,,,,,,,,,,,,,2.4744724000047427,2.4745051999925636,,,,515518,001,2025-10-23_20h12.43.275,run,2024.2.4,None,2025-10-23 20h12.48.629958 +0800,
5,0,5,0,0,0,0,0,0,0,0,5,0,5,0,2.484623800002737,,,,,,,,,,,,,2.4752763000142295,2.4851101000094786,2.484623800002737,2.484623800002737,2.484623800002737,515518,001,2025-10-23_20h12.43.275,run,2024.2.4,None,2025-10-23 20h12.48.629958 +0800,
6,0,6,0,0,0,0,0,0,0,0,6,0,6,0,2.5152280000038445,,,,,,,,,,,,,2.4869047999964096,2.4869531000149436,,,,515518,001,2025-10-23_20h12.43.275,run,2024.2.4,None,2025-10-23 20h12.48.629958 +0800,
7,0,7,0,0,0,0,0,0,0,0,7,0,7,0,2.5152280000038445,,,,,,,,,,,,,2.488798800011864,2.4888553000055254,,,,515518,001,2025-10-23_20h12.43.275,run,2024.2.4,None,2025-10-23 20h12.48.629958 +0800,
8,0,8,0,0,0,0,0,0,0,0,8,0,8,0,2.5152280000038445,,,,,,,,,,,,,2.490301300014835,2.490338300005533,,,,515518,001,2025-10-23_20h12.43.275,run,2024.2.4,None,2025-10-23 20h12.48.629958 +0800,
9,0,9,0,0,0,0,0,0,0,0,9,0,9,0,2.5152280000038445,,,,,,,,,,,,,2.491412900009891,2.4914481999876443,,,,515518,001,2025-10-23_20h12.43.275,run,2024.2.4,None,2025-10-23 20h12.48.629958 +0800,
10,0,10,0,0,0,0,0,0,0,0,10,0,10,0,2.5152280000038445,,,,,,,,,,,,,2.492402800009586,2.4924345999897923,,,,515518,001,2025-10-23_20h12.43.275,run,2024.2.4,None,2025-10-23 20h12.48.629958 +0800,
11,0,11,0,0,0,0,0,0,0,0,11,0,11,0,2.5152280000038445,,,,,,,,,,,,,2.493819800001802,2.493852200015681,,,,515518,001,2025-10-23_20h12.43.275,run,2024.2.4,None,2025-10-23 20h12.48.629958 +0800,
12,0,12,0,0,0,0,0,0,0,0,12,0,12,0,2.5152280000038445,,,,,,,,,,,,,2.4956763999944087,2.4957183999940753,,,,515518,001,2025-10-23_20h12.43.275,run,2024.2.4,None,2025-10-23 20h12.48.629958 +0800,
13,0,13,0,0,0,0,0,0,0,0,13,0,13,0,2.5152280000038445,,,,,,,,,,,,,2.496412500011502,2.49644580000313,,,,515518,001,2025-10-23_20h12.43.275,run,2024.2.4,None,2025-10-23 20h12.48.629958 +0800,
14,0,14,0,0,0,0,0,0,0,0,14,0,14,0,2.5152280000038445,,,,,,,,,,,,,2.4974335999868345,2.497466400003759,,,,515518,001,2025-10-23_20h12.43.275,run,2024.2.4,None,2025-10-23 20h12.48.629958 +0800,
15,0,15,0,0,0,0,0,0,0,0,15,0,15,0,2.5152280000038445,,,,,,,,,,,,,2.4985281999979634,2.4985635000048205,,,,515518,001,2025-10-23_20h12.43.275,run,2024.2.4,None,2025-10-23 20h12.48.629958 +0800,
16,0,16,0,0,0,0,0,0,0,0,16,0,16,0,2.5152280000038445,,,,,,,,,,,,,2.499824800004717,2.499897300003795,,,,515518,001,2025-10-23_20h12.43.275,run,2024.2.4,None,2025-10-23 20h12.48.629958 +0800,
17,0,17,0,0,0,0,0,0,0,0,17,0,17,0,2.5152280000038445,,,,,,,,,,,,,2.5015653000155,2.5016181000100914,,,,515518,001,2025-10-23_20h12.43.275,run,2024.2.4,None,2025-10-23 20h12.48.629958 +0800,
18,0,18,0,0,0,0,0,0,0,0,18,0,18,0,2.5152280000038445,,,,,,,,,,,,,2.5023847999982536,2.502447900013067,,,,515518,001,2025-10-23_20h12.43.275,run,2024.2.4,None,2025-10-23 20h12.48.629958 +0800,
19,0,19,0,0,0,0,0,0,0,0,19,0,19,0,2.5152280000038445,,,,,,,,,,,,,2.503644100012025,2.5156941000022925,2.5152280000038445,2.5152280000038445,2.5152280000038445,515518,001,2025-10-23_20h12.43.275,run,2024.2.4,None,2025-10-23 20h12.48.629958 +0800,
20,0,20,0,0,0,0,0,0,0,0,20,0,20,0,2.542318799998611,,,,,,,,,,,,,2.5162993000121787,2.5163381999882404,,,,515518,001,2025-10-23_20h12.43.275,run,2024.2.4,None,2025-10-23 20h12.48.629958 +0800,
21,0,21,0,0,0,0,0,0,0,0,21,0,21,0,2.542318799998611,,,,,,,,,,,,,2.517389099986758,2.517421500000637,,,,515518,001,2025-10-23_20h12.43.275,run,2024.2.4,None,2025-10-23 20h12.48.629958 +0800,
22,0,22,0,0,0,0,0,0,0,0,22,0,22,0,2.542318799998611,,,,,,,,,,,,,2.5184210000152234,2.5184516000153963,,,,515518,001,2025-10-23_20h12.43.275,run,2024.2.4,None,2025-10-23 20h12.48.629958 +0800,
23,0,23,0,0,0,0,0,0,0,0,23,0,23,0,2.542318799998611,,,,,,,,,,,,,2.5193177000037394,2.5193497000145726,,,,515518,001,2025-10-23_20h12.43.275,run,2024.2.4,None,2025-10-23 20h12.48.629958 +0800,
24,0,24,0,0,0,0,0,0,0,0,24,0,24,0,2.542318799998611,,,,,,,,,,,,,2.5201297999883536,2.520166500005871,,,,515518,001,2025-10-23_20h12.43.275,run,2024.2.4,None,2025-10-23 20h12.48.629958 +0800,
25,0,25,0,0,0,0,0,0,0,0,25,0,25,0,2.542318799998611,,,,,,,,,,,,,2.521162299992284,2.5211984000052325,,,,515518,001,2025-10-23_20h12.43.275,run,2024.2.4,None,2025-10-23 20h12.48.629958 +0800,
26,0,26,0,0,0,0,0,0,0,0,26,0,26,0,2.542318799998611,,,,,,,,,,,,,2.5221588000131305,2.5221888000087347,,,,515518,001,2025-10-23_20h12.43.275,run,2024.2.4,None,2025-10-23 20h12.48.629958 +0800,
27,0,27,0,0,0,0,0,0,0,0,27,0,27,0,2.542318799998611,,,,,,,,,,,,,2.5236460999876726,2.5236997999891173,,,,515518,001,2025-10-23_20h12.43.275,run,2024.2.4,None,2025-10-23 20h12.48.629958 +0800,
28,0,28,0,0,0,0,0,0,0,0,28,0,28,0,2.542318799998611,,,,,,,,,,,,,2.5256463999976404,2.5257050000072923,,,,515518,001,2025-10-23_20h12.43.275,run,2024.2.4,None,2025-10-23 20h12.48.629958 +0800,
29,0,29,0,0,0,0,0,0,0,0,29,0,29,0,2.542318799998611,,,,,,,,,,,,,2.527390100003686,2.527437699987786,,,,515518,001,2025-10-23_20h12.43.275,run,2024.2.4,None,2025-10-23 20h12.48.629958 +0800,
30,0,30,0,0,0,0,0,0,0,0,30,0,30,0,2.542318799998611,,,,,,,,,,,,,2.52869579999242,2.528756000014255,,,,515518,001,2025-10-23_20h12.43.275,run,2024.2.4,None,2025-10-23 20h12.48.629958 +0800,
31,0,31,0,0,0,0,0,0,0,0,31,0,31,0,2.542318799998611,,,,,,,,,,,,,2.530567300011171,2.530619700002717,,,,515518,001,2025-10-23_20h12.43.275,run,2024.2.4,None,2025-10-23 20h12.48.629958 +0800,
32,0,32,0,0,0,0,0,0,0,0,32,0,32,0,2.542318799998611,,,,,,,,,,,,,2.5313027999945916,2.531366600014735,,,,515518,001,2025-10-23_20h12.43.275,run,2024.2.4,None,2025-10-23 20h12.48.629958 +0800,
33,0,33,0,0,0,0,0,0,0,0,33,0,33,0,2.542318799998611,,,,,,,,,,,,,2.5324111999943852,2.5324437000090256,,,,515518,001,2025-10-23_20h12.43.275,run,2024.2.4,None,2025-10-23 20h12.48.629958 +0800,
34,0,34,0,0,0,0,0,0,0,0,34,0,34,0,2.542318799998611,,,,,,,,,,,,,2.5332397999882232,2.542541800008621,2.542318799998611,2.542318799998611,2.542318799998611,515518,001,2025-10-23_20h12.43.275,run,2024.2.4,None,2025-10-23 20h12.48.629958 +0800,
35,0,35,0,0,0,0,0,0,0,0,35,0,35,0,2.555904400011059,,,,,,,,,,,,,2.543170299992198,2.5432049999944866,,,,515518,001,2025-10-23_20h12.43.275,run,2024.2.4,None,2025-10-23 20h12.48.629958 +0800,
36,0,36,0,0,0,0,0,0,0,0,36,0,36,0,2.555904400011059,,,,,,,,,,,,,2.54447860000073,2.5445400000025984,,,,515518,001,2025-10-23_20h12.43.275,run,2024.2.4,None,2025-10-23 20h12.48.629958 +0800,
37,0,37,0,0,0,0,0,0,0,0,37,0,37,0,2.555904400011059,,,,,,,,,,,,,2.545263900014106,2.545321799989324,,,,515518,001,2025-10-23_20h12.43.275,run,2024.2.4,None,2025-10-23 20h12.48.629958 +0800,
38,0,38,0,0,0,0,0,0,0,0,38,0,38,0,2.555904400011059,,,,,,,,,,,,,2.5461734000127763,2.546209199994337,,,,515518,001,2025-10-23_20h12.43.275,run,2024.2.4,None,2025-10-23 20h12.48.629958 +0800,
39,0,39,0,0,0,0,0,0,0,0,39,0,39,0,2.555904400011059,,,,,,,,,,,,,2.547189500008244,2.547221399989212,,,,515518,001,2025-10-23_20h12.43.275,run,2024.2.4,None,2025-10-23 20h12.48.629958 +0800,
40,0,40,0,0,0,0,0,0,0,0,40,0,40,0,2.555904400011059,,,,,,,,,,,,,2.548106900008861,2.5481400999997277,,,,515518,001,2025-10-23_20h12.43.275,run,2024.2.4,None,2025-10-23 20h12.48.629958 +0800,
41,0,41,0,0,0,0,0,0,0,0,41,0,41,0,2.555904400011059,,,,,,,,,,,,,2.5493001000140794,2.5493327000003774,,,,515518,001,2025-10-23_20h12.43.275,run,2024.2.4,None,2025-10-23 20h12.48.629958 +0800,
42,0,42,0,0,0,0,0,0,0,0,42,0,42,0,2.555904400011059,,,,,,,,,,,,,2.5501814000017475,2.5560853999922983,2.555904400011059,2.555904400011059,2.555904400011059,515518,001,2025-10-23_20h12.43.275,run,2024.2.4,None,2025-10-23 20h12.48.629958 +0800,
43,0,43,0,0,0,0,0,0,0,0,43,0,43,0,2.567332400009036,,,,,,,,,,,,,2.5565635999955703,2.5566113000095356,,,,515518,001,2025-10-23_20h12.43.275,run,2024.2.4,None,2025-10-23 20h12.48.629958 +0800,
44,0,44,0,0,0,0,0,0,0,0,44,0,44,0,2.567332400009036,,,,,,,,,,,,,2.557283100002678,2.5573376000102144,,,,515518,001,2025-10-23_20h12.43.275,run,2024.2.4,None,2025-10-23 20h12.48.629958 +0800,
45,0,45,0,0,0,0,0,0,0,0,45,0,45,0,2.567332400009036,,,,,,,,,,,,,2.558036800008267,2.5580700999998953,,,,515518,001,2025-10-23_20h12.43.275,run,2024.2.4,None,2025-10-23 20h12.48.629958 +0800,
46,0,46,0,0,0,0,0,0,0,0,46,0,46,0,2.567332400009036,,,,,,,,,,,,,2.5591468999919016,2.5591802000126336,,,,515518,001,2025-10-23_20h12.43.275,run,2024.2.4,None,2025-10-23 20h12.48.629958 +0800,
47,0,47,0,0,0,0,0,0,0,0,47,0,47,0,2.567332400009036,,,,,,,,,,,,,2.5600901000143494,2.5675430000119377,2.567332400009036,2.567332400009036,2.567332400009036,515518,001,2025-10-23_20h12.43.275,run,2024.2.4,None,2025-10-23 20h12.48.629958 +0800,
48,0,48,0,0,0,0,0,0,0,0,48,0,48,0,2.57970239999122,,,,,,,,,,,,,2.56812660000287,2.5681620000104886,,,,515518,001,2025-10-23_20h12.43.275,run,2024.2.4,None,2025-10-23 20h12.48.629958 +0800,
49,0,49,0,0,0,0,0,0,0,0,49,0,49,0,2.57970239999122,,,,,,,,,,,,,2.569214599992847,2.56924959999742,,,,515518,001,2025-10-23_20h12.43.275,run,2024.2.4,None,2025-10-23 20h12.48.629958 +0800,
50,0,50,0,0,0,0,0,0,0,0,50,0,50,0,2.57970239999122,,,,,,,,,,,,,2.5700389000121504,2.570077200012747,,,,515518,001,2025-10-23_20h12.43.275,run,2024.2.4,None,2025-10-23 20h12.48.629958 +0800,
51,0,51,0,0,0,0,0,0,0,0,51,0,51,0,2.57970239999122,,,,,,,,,,,,,2.5709821000054944,2.5710104999889154,,,,515518,001,2025-10-23_20h12.43.275,run,2024.2.4,None,2025-10-23 20h12.48.629958 +0800,
52,0,52,0,0,0,0,0,0,0,0,52,0,52,0,2.57970239999122,,,,,,,,,,,,,2.57204840000486,2.572081899998011,,,,515518,001,2025-10-23_20h12.43.275,run,2024.2.4,None,2025-10-23 20h12.48.629958 +0800,
53,0,53,0,0,0,0,0,0,0,0,53,0,53,0,2.57970239999122,,,,,,,,,,,,,2.5730861999909393,2.5731165999895893,,,,515518,001,2025-10-23_20h12.43.275,run,2024.2.4,None,2025-10-23 20h12.48.629958 +0800,
54,0,54,0,0,0,0,0,0,0,0,54,0,54,0,2.57970239999122,,,,,,,,,,,,,2.5740473000041675,2.5801594000076875,2.57970239999122,2.57970239999122,2.57970239999122,515518,001,2025-10-23_20h12.43.275,run,2024.2.4,None,2025-10-23 20h12.48.629958 +0800,
55,0,55,0,0,0,0,0,0,0,0,55,0,55,0,2.5920489999989513,,,,,,,,,,,,,2.581188200012548,2.5812232999887783,,,,515518,001,2025-10-23_20h12.43.275,run,2024.2.4,None,2025-10-23 20h12.48.629958 +0800,
56,0,56,0,0,0,0,0,0,0,0,56,0,56,0,2.5920489999989513,,,,,,,,,,,,,2.5821523999911733,2.5821979999891482,,,,515518,001,2025-10-23_20h12.43.275,run,2024.2.4,None,2025-10-23 20h12.48.629958 +0800,
57,0,57,0,0,0,0,0,0,0,0,57,0,57,0,2.5920489999989513,,,,,,,,,,,,,2.5829161000146996,2.582950300013181,,,,515518,001,2025-10-23_20h12.43.275,run,2024.2.4,None,2025-10-23 20h12.48.629958 +0800,
58,0,58,0,0,0,0,0,0,0,0,58,0,58,0,2.5920489999989513,,,,,,,,,,,,,2.5840407999930903,2.584075999999186,,,,515518,001,2025-10-23_20h12.43.275,run,2024.2.4,None,2025-10-23 20h12.48.629958 +0800,
59,0,59,0,0,0,0,0,0,0,0,59,0,59,0,2.5920489999989513,,,,,,,,,,,,,2.584923799993703,2.5849505999940448,,,,515518,001,2025-10-23_20h12.43.275,run,2024.2.4,None,2025-10-23 20h12.48.629958 +0800,
60,0,60,0,0,0,0,0,0,0,0,60,0,60,0,2.5920489999989513,,,,,,,,,,,,,2.586061999987578,2.592219100013608,2.5920489999989513,2.5920489999989513,2.5920489999989513,515518,001,2025-10-23_20h12.43.275,run,2024.2.4,None,2025-10-23 20h12.48.629958 +0800,
61,0,61,0,0,0,0,0,0,0,0,61,0,61,0,2.609275199996773,,,,,,,,,,,,,2.592992999998387,2.5930280000029597,,,,515518,001,2025-10-23_20h12.43.275,run,2024.2.4,None,2025-10-23 20h12.48.629958 +0800,
62,0,62,0,0,0,0,0,0,0,0,62,0,62,0,2.609275199996773,,,,,,,,,,,,,2.5939108000020497,2.593943899992155,,,,515518,001,2025-10-23_20h12.43.275,run,2024.2.4,None,2025-10-23 20h12.48.629958 +0800,
63,0,63,0,0,0,0,0,0,0,0,63,0,63,0,2.609275199996773,,,,,,,,,,,,,2.595036100014113,2.595070100011071,,,,515518,001,2025-10-23_20h12.43.275,run,2024.2.4,None,2025-10-23 20h12.48.629958 +0800,
64,0,64,0,0,0,0,0,0,0,0,64,0,64,0,2.609275199996773,,,,,,,,,,,,,2.595984599989606,2.5960206000017934,,,,515518,001,2025-10-23_20h12.43.275,run,2024.2.4,None,2025-10-23 20h12.48.629958 +0800,
65,0,65,0,0,0,0,0,0,0,0,65,0,65,0,2.609275199996773,,,,,,,,,,,,,2.597020099987276,2.597049000003608,,,,515518,001,2025-10-23_20h12.43.275,run,2024.2.4,None,2025-10-23 20h12.48.629958 +0800,
66,0,66,0,0,0,0,0,0,0,0,66,0,66,0,2.609275199996773,,,,,,,,,,,,,2.598003399994923,2.609464000008302,2.609275199996773,2.609275199996773,2.609275199996773,515518,001,2025-10-23_20h12.43.275,run,2024.2.4,None,2025-10-23 20h12.48.629958 +0800,
67,0,67,0,0,0,0,0,0,0,0,67,0,67,0,2.625911000010092,,,,,,,,,,,,,2.610107299988158,2.6101423999934923,,,,515518,001,2025-10-23_20h12.43.275,run,2024.2.4,None,2025-10-23 20h12.48.629958 +0800,
68,0,68,0,0,0,0,0,0,0,0,68,0,68,0,2.625911000010092,,,,,,,,,,,,,2.611215100012487,2.6112473999965005,,,,515518,001,2025-10-23_20h12.43.275,run,2024.2.4,None,2025-10-23 20h12.48.629958 +0800,
69,0,69,0,0,0,0,0,0,0,0,69,0,69,0,2.625911000010092,,,,,,,,,,,,,2.611989700002596,2.6120238000003155,,,,515518,001,2025-10-23_20h12.43.275,run,2024.2.4,None,2025-10-23 20h12.48.629958 +0800,
70,0,70,0,0,0,0,0,0,0,0,70,0,70,0,2.625911000010092,,,,,,,,,,,,,2.6129335000005085,2.612965800013626,,,,515518,001,2025-10-23_20h12.43.275,run,2024.2.4,None,2025-10-23 20h12.48.629958 +0800,
71,0,71,0,0,0,0,0,0,0,0,71,0,71,0,2.625911000010092,,,,,,,,,,,,,2.614127200009534,2.6141573000058997,,,,515518,001,2025-10-23_20h12.43.275,run,2024.2.4,None,2025-10-23 20h12.48.629958 +0800,
72,0,72,0,0,0,0,0,0,0,0,72,0,72,0,2.625911000010092,,,,,,,,,,,,,2.6150561000104062,2.615091100014979,,,,515518,001,2025-10-23_20h12.43.275,run,2024.2.4,None,2025-10-23 20h12.48.629958 +0800,
73,0,73,0,0,0,0,0,0,0,0,73,0,73,0,2.625911000010092,,,,,,,,,,,,,2.616211699991254,2.616249799990328,,,,515518,001,2025-10-23_20h12.43.275,run,2024.2.4,None,2025-10-23 20h12.48.629958 +0800,
74,0,74,0,0,0,0,0,0,0,0,74,0,74,0,2.625911000010092,,,,,,,,,,,,,2.617012800008524,2.6170424000010826,,,,515518,001,2025-10-23_20h12.43.275,run,2024.2.4,None,2025-10-23 20h12.48.629958 +0800,
75,0,75,0,0,0,0,0,0,0,0,75,0,75,0,2.625911000010092,,,,,,,,,,,,,2.6179824999999255,2.618007300014142,,,,515518,001,2025-10-23_20h12.43.275,run,2024.2.4,None,2025-10-23 20h12.48.629958 +0800,
76,0,76,0,0,0,0,0,0,0,0,76,0,76,0,2.625911000010092,,,,,,,,,,,,,2.619079399999464,2.619112199987285,,,,515518,001,2025-10-23_20h12.43.275,run,2024.2.4,None,2025-10-23 20h12.48.629958 +0800,
77,0,77,0,0,0,0,0,0,0,0,77,0,77,0,2.625911000010092,,,,,,,,,,,,,2.620179099991219,2.626099699991755,2.625911000010092,2.625911000010092,2.625911000010092,515518,001,2025-10-23_20h12.43.275,run,2024.2.4,None,2025-10-23 20h12.48.629958 +0800,
78,0,78,0,0,0,0,0,0,0,0,78,0,78,0,2.641971100005321,,,,,,,,,,,,,2.627043699991191,2.627077000011923,,,,515518,001,2025-10-23_20h12.43.275,run,2024.2.4,None,2025-10-23 20h12.48.629958 +0800,
79,0,79,0,0,0,0,0,0,0,0,79,0,79,0,2.641971100005321,,,,,,,,,,,,,2.6281654000049457,2.6282072000030894,,,,515518,001,2025-10-23_20h12.43.275,run,2024.2.4,None,2025-10-23 20h12.48.629958 +0800,
80,0,80,0,0,0,0,0,0,0,0,80,0,80,0,2.641971100005321,,,,,,,,,,,,,2.6289972999948077,2.6290355999954045,,,,515518,001,2025-10-23_20h12.43.275,run,2024.2.4,None,2025-10-23 20h12.48.629958 +0800,
81,0,81,0,0,0,0,0,0,0,0,81,0,81,0,2.641971100005321,,,,,,,,,,,,,2.630055199988419,2.6300832999986596,,,,515518,001,2025-10-23_20h12.43.275,run,2024.2.4,None,2025-10-23 20h12.48.629958 +0800,
82,0,82,0,0,0,0,0,0,0,0,82,0,82,0,2.641971100005321,,,,,,,,,,,,,2.6309805999917444,2.631008299998939,,,,515518,001,2025-10-23_20h12.43.275,run,2024.2.4,None,2025-10-23 20h12.48.629958 +0800,
83,0,83,0,0,0,0,0,0,0,0,83,0,83,0,2.641971100005321,,,,,,,,,,,,,2.6321749000053387,2.6422422000032384,2.641971100005321,2.641971100005321,2.641971100005321,515518,001,2025-10-23_20h12.43.275,run,2024.2.4,None,2025-10-23 20h12.48.629958 +0800,
84,0,84,0,0,0,0,0,0,0,0,84,0,84,0,2.659682800003793,,,,,,,,,,,,,2.6431659999943804,2.6432000999921,,,,515518,001,2025-10-23_20h12.43.275,run,2024.2.4,None,2025-10-23 20h12.48.629958 +0800,
85,0,85,0,0,0,0,0,0,0,0,85,0,85,0,2.659682800003793,,,,,,,,,,,,,2.644108700013021,2.6441421000054106,,,,515518,001,2025-10-23_20h12.43.275,run,2024.2.4,None,2025-10-23 20h12.48.629958 +0800,
86,0,86,0,0,0,0,0,0,0,0,86,0,86,0,2.659682800003793,,,,,,,,,,,,,2.6449497000139672,2.644982199999504,,,,515518,001,2025-10-23_20h12.43.275,run,2024.2.4,None,2025-10-23 20h12.48.629958 +0800,
87,0,87,0,0,0,0,0,0,0,0,87,0,87,0,2.659682800003793,,,,,,,,,,,,,2.645991800003685,2.646029199997429,,,,515518,001,2025-10-23_20h12.43.275,run,2024.2.4,None,2025-10-23 20h12.48.629958 +0800,
88,0,88,0,0,0,0,0,0,0,0,88,0,88,0,2.659682800003793,,,,,,,,,,,,,2.6472390000126325,2.6472702999890316,,,,515518,001,2025-10-23_20h12.43.275,run,2024.2.4,None,2025-10-23 20h12.48.629958 +0800,
89,0,89,0,0,0,0,0,0,0,0,89,0,89,0,2.659682800003793,,,,,,,,,,,,,2.6481146999867633,2.648148400010541,,,,515518,001,2025-10-23_20h12.43.275,run,2024.2.4,None,2025-10-23 20h12.48.629958 +0800,
90,0,90,0,0,0,0,0,0,0,0,90,0,90,0,2.659682800003793,,,,,,,,,,,,,2.649018900003284,2.6490544000116643,,,,515518,001,2025-10-23_20h12.43.275,run,2024.2.4,None,2025-10-23 20h12.48.629958 +0800,
91,0,91,0,0,0,0,0,0,0,0,91,0,91,0,2.659682800003793,,,,,,,,,,,,,2.65031799999997,2.650362100015627,,,,515518,001,2025-10-23_20h12.43.275,run,2024.2.4,None,2025-10-23 20h12.48.629958 +0800,
92,0,92,0,0,0,0,0,0,0,0,92,0,92,0,2.659682800003793,,,,,,,,,,,,,2.651197500003036,2.6512298999878112,,,,515518,001,2025-10-23_20h12.43.275,run,2024.2.4,None,2025-10-23 20h12.48.629958 +0800,
93,0,93,0,0,0,0,0,0,0,0,93,0,93,0,2.659682800003793,,,,,,,,,,,,,2.652135799988173,2.6602125999925192,2.659682800003793,2.659682800003793,2.659682800003793,515518,001,2025-10-23_20h12.43.275,run,2024.2.4,None,2025-10-23 20h12.48.629958 +0800,
94,0,94,0,0,0,0,0,0,0,0,94,0,94,0,2.6767947000043932,,,,,,,,,,,,,2.660767900000792,2.660811999987345,,,,515518,001,2025-10-23_20h12.43.275,run,2024.2.4,None,2025-10-23 20h12.48.629958 +0800,
95,0,95,0,0,0,0,0,0,0,0,95,0,95,0,2.6767947000043932,,,,,,,,,,,,,2.6622128000017256,2.6622504999977536,,,,515518,001,2025-10-23_20h12.43.275,run,2024.2.4,None,2025-10-23 20h12.48.629958 +0800,
96,0,96,0,0,0,0,0,0,0,0,96,0,96,0,2.6767947000043932,,,,,,,,,,,,,2.6630188999988604,2.66305599999032,,,,515518,001,2025-10-23_20h12.43.275,run,2024.2.4,None,2025-10-23 20h12.48.629958 +0800,
97,0,97,0,0,0,0,0,0,0,0,97,0,97,0,2.6767947000043932,,,,,,,,,,,,,2.6640593000047375,2.6640867000096478,,,,515518,001,2025-10-23_20h12.43.275,run,2024.2.4,None,2025-10-23 20h12.48.629958 +0800,
98,0,98,0,0,0,0,0,0,0,0,98,0,98,0,2.6767947000043932,,,,,,,,,,,,,2.6652991000155453,2.665359400009038,,,,515518,001,2025-10-23_20h12.43.275,run,2024.2.4,None,2025-10-23 20h12.48.629958 +0800,
99,0,99,0,0,0,0,0,0,0,0,99,0,99,0,2.6767947000043932,,,,,,,,,,,,,2.666151899989927,2.666182299988577,,,,515518,001,2025-10-23_20h12.43.275,run,2024.2.4,None,2025-10-23 20h12.48.629958 +0800,
100,0,100,0,0,0,0,0,0,0,0,100,0,100,0,2.6767947000043932,,,,,,,,,,,,,2.6670305999869015,2.6670611000154167,,,,515518,001,2025-10-23_20h12.43.275,run,2024.2.4,None,2025-10-23 20h12.48.629958 +0800,
101,0,101,0,0,0,0,0,0,0,0,101,0,101,0,2.6767947000043932,,,,,,,,,,,,,2.66802420001477,2.6769650999922305,2.6767947000043932,2.6767947000043932,2.6767947000043932,515518,001,2025-10-23_20h12.43.275,run,2024.2.4,None,2025-10-23 20h12.48.629958 +0800,
102,0,102,0,0,0,0,0,0,0,0,102,0,102,0,2.6932794000022113,,,,,,,,,,,,,2.6782208000076935,2.67826720001176,,,,515518,001,2025-10-23_20h12.43.275,run,2024.2.4,None,2025-10-23 20h12.48.629958 +0800,
103,0,103,0,0,0,0,0,0,0,0,103,0,103,0,2.6932794000022113,,,,,,,,,,,,,2.679110600001877,2.679144299996551,,,,515518,001,2025-10-23_20h12.43.275,run,2024.2.4,None,2025-10-23 20h12.48.629958 +0800,
104,0,104,0,0,0,0,0,0,0,0,104,0,104,0,2.6932794000022113,,,,,,,,,,,,,2.6800502999976743,2.6800833999877796,,,,515518,001,2025-10-23_20h12.43.275,run,2024.2.4,None,2025-10-23 20h12.48.629958 +0800,
105,0,105,0,0,0,0,0,0,0,0,105,0,105,0,2.6932794000022113,,,,,,,,,,,,,2.681022300006589,2.681054199987557,,,,515518,001,2025-10-23_20h12.43.275,run,2024.2.4,None,2025-10-23 20h12.48.629958 +0800,
106,0,106,0,0,0,0,0,0,0,0,106,0,106,0,2.6932794000022113,,,,,,,,,,,,,2.6822009999887086,2.682233700004872,,,,515518,001,2025-10-23_20h12.43.275,run,2024.2.4,None,2025-10-23 20h12.48.629958 +0800,
107,0,107,0,0,0,0,0,0,0,0,107,0,107,0,2.6932794000022113,,,,,,,,,,,,,2.683008099993458,2.683040100004291,,,,515518,001,2025-10-23_20h12.43.275,run,2024.2.4,None,2025-10-23 20h12.48.629958 +0800,
108,0,108,0,0,0,0,0,0,0,0,108,0,108,0,2.6932794000022113,,,,,,,,,,,,,2.6839805000054184,2.6840120000124443,,,,515518,001,2025-10-23_20h12.43.275,run,2024.2.4,None,2025-10-23 20h12.48.629958 +0800,
109,0,109,0,0,0,0,0,0,0,0,109,0,109,0,2.6932794000022113,,,,,,,,,,,,,2.685160900000483,2.6851893000130076,,,,515518,001,2025-10-23_20h12.43.275,run,2024.2.4,None,2025-10-23 20h12.48.629958 +0800,
110,0,110,0,0,0,0,0,0,0,0,110,0,110,0,2.6932794000022113,,,,,,,,,,,,,2.6865649000101257,2.686609900003532,,,,515518,001,2025-10-23_20h12.43.275,run,2024.2.4,None,2025-10-23 20h12.48.629958 +0800,
111,0,111,0,0,0,0,0,0,0,0,111,0,111,0,2.6932794000022113,,,,,,,,,,,,,2.687194300000556,2.6934572999889497,2.6932794000022113,2.6932794000022113,2.6932794000022113,515518,001,2025-10-23_20h12.43.275,run,2024.2.4,None,2025-10-23 20h12.48.629958 +0800,
112,0,112,0,0,0,0,0,0,0,0,112,0,112,0,2.7101030999911018,,,,,,,,,,,,,2.6943552999873646,2.6944316000153776,,,,515518,001,2025-10-23_20h12.43.275,run,2024.2.4,None,2025-10-23 20h12.48.629958 +0800,
113,0,113,0,0,0,0,0,0,0,0,113,0,113,0,2.7101030999911018,,,,,,,,,,,,,2.695153200009372,2.6951874000078533,,,,515518,001,2025-10-23_20h12.43.275,run,2024.2.4,None,2025-10-23 20h12.48.629958 +0800,
114,0,114,0,0,0,0,0,0,0,0,114,0,114,0,2.7101030999911018,,,,,,,,,,,,,2.6960344999970403,2.6960611999966204,,,,515518,001,2025-10-23_20h12.43.275,run,2024.2.4,None,2025-10-23 20h12.48.629958 +0800,
115,0,115,0,0,0,0,0,0,0,0,115,0,115,0,2.7101030999911018,,,,,,,,,,,,,2.697168499988038,2.697204900003271,,,,515518,001,2025-10-23_20h12.43.275,run,2024.2.4,None,2025-10-23 20h12.48.629958 +0800,
116,0,116,0,0,0,0,0,0,0,0,116,0,116,0,2.7101030999911018,,,,,,,,,,,,,2.698131699988153,2.7102642999961972,2.7101030999911018,2.7101030999911018,2.7101030999911018,515518,001,2025-10-23_20h12.43.275,run,2024.2.4,None,2025-10-23 20h12.48.629958 +0800,
117,0,117,0,0,0,0,0,0,0,0,117,0,117,0,2.7300599000009242,,,,,,,,,,,,,2.7117440000001807,2.711811699991813,,,,515518,001,2025-10-23_20h12.43.275,run,2024.2.4,None,2025-10-23 20h12.48.629958 +0800,
118,0,118,0,0,0,0,0,0,0,0,118,0,118,0,2.7300599000009242,,,,,,,,,,,,,2.7132745000126306,2.7133175999915693,,,,515518,001,2025-10-23_20h12.43.275,run,2024.2.4,None,2025-10-23 20h12.48.629958 +0800,
119,0,119,0,0,0,0,0,0,0,0,119,0,119,0,2.7300599000009242,,,,,,,,,,,,,2.7139689000032376,2.7139995000034105,,,,515518,001,2025-10-23_20h12.43.275,run,2024.2.4,None,2025-10-23 20h12.48.629958 +0800,
120,0,120,0,0,0,0,0,0,0,0,120,0,120,0,2.7300599000009242,,,,,,,,,,,,,2.715114699996775,2.715146200003801,,,,515518,001,2025-10-23_20h12.43.275,run,2024.2.4,None,2025-10-23 20h12.48.629958 +0800,
121,0,121,0,0,0,0,0,0,0,0,121,0,121,0,2.7300599000009242,,,,,,,,,,,,,2.7161988000152633,2.7162304999947082,,,,515518,001,2025-10-23_20h12.43.275,run,2024.2.4,None,2025-10-23 20h12.48.629958 +0800,
122,0,122,0,0,0,0,0,0,0,0,122,0,122,0,2.7300599000009242,,,,,,,,,,,,,2.717065000004368,2.717096100008348,,,,515518,001,2025-10-23_20h12.43.275,run,2024.2.4,None,2025-10-23 20h12.48.629958 +0800,
123,0,123,0,0,0,0,0,0,0,0,123,0,123,0,2.7300599000009242,,,,,,,,,,,,,2.7181111999962013,2.7181350000028033,,,,515518,001,2025-10-23_20h12.43.275,run,2024.2.4,None,2025-10-23 20h12.48.629958 +0800,
124,0,124,0,0,0,0,0,0,0,0,124,0,124,0,2.7300599000009242,,,,,,,,,,,,,2.719091400009347,2.7191226000140887,,,,515518,001,2025-10-23_20h12.43.275,run,2024.2.4,None,2025-10-23 20h12.48.629958 +0800,
125,0,125,0,0,0,0,0,0,0,0,125,0,125,0,2.7300599000009242,,,,,,,,,,,,,2.720116999989841,2.720156399998814,,,,515518,001,2025-10-23_20h12.43.275,run,2024.2.4,None,2025-10-23 20h12.48.629958 +0800,
126,0,126,0,0,0,0,0,0,0,0,126,0,126,0,2.7300599000009242,,,,,,,,,,,,,2.7210767999931704,2.721108199999435,,,,515518,001,2025-10-23_20h12.43.275,run,2024.2.4,None,2025-10-23 20h12.48.629958 +0800,
127,0,127,0,0,0,0,0,0,0,0,127,0,127,0,2.7300599000009242,,,,,,,,,,,,,2.7221775999933016,2.7222093000018504,,,,515518,001,2025-10-23_20h12.43.275,run,2024.2.4,None,2025-10-23 20h12.48.629958 +0800,
128,0,128,0,0,0,0,0,0,0,0,128,0,128,0,2.7300599000009242,,,,,,,,,,,,,2.723060099990107,2.723102199990535,,,,515518,001,2025-10-23_20h12.43.275,run,2024.2.4,None,2025-10-23 20h12.48.629958 +0800,
129,0,129,0,0,0,0,0,0,0,0,129,0,129,0,2.7300599000009242,,,,,,,,,,,,,2.7241022000089288,2.7302896000037435,2.7300599000009242,2.7300599000009242,2.7300599000009242,515518,001,2025-10-23_20h12.43.275,run,2024.2.4,None,2025-10-23 20h12.48.629958 +0800,
130,0,130,0,0,0,0,0,0,0,0,130,0,130,0,2.743703000014648,,,,,,,,,,,,,2.731073600007221,2.7311076000041794,,,,515518,001,2025-10-23_20h12.43.275,run,2024.2.4,None,2025-10-23 20h12.48.629958 +0800,
131,0,131,0,0,0,0,0,0,0,0,131,0,131,0,2.743703000014648,,,,,,,,,,,,,2.732212900009472,2.7322876999969594,,,,515518,001,2025-10-23_20h12.43.275,run,2024.2.4,None,2025-10-23 20h12.48.629958 +0800,
132,0,132,0,0,0,0,0,0,0,0,132,0,132,0,2.743703000014648,,,,,,,,,,,,,2.7329610000015236,2.732996100006858,,,,515518,001,2025-10-23_20h12.43.275,run,2024.2.4,None,2025-10-23 20h12.48.629958 +0800,
133,0,133,0,0,0,0,0,0,0,0,133,0,133,0,2.743703000014648,,,,,,,,,,,,,2.734043300006306,2.7340722999942955,,,,515518,001,2025-10-23_20h12.43.275,run,2024.2.4,None,2025-10-23 20h12.48.629958 +0800,
134,0,134,0,0,0,0,0,0,0,0,134,0,134,0,2.743703000014648,,,,,,,,,,,,,2.7349866000004113,2.735019399988232,,,,515518,001,2025-10-23_20h12.43.275,run,2024.2.4,None,2025-10-23 20h12.48.629958 +0800,
135,0,135,0,0,0,0,0,0,0,0,135,0,135,0,2.743703000014648,,,,,,,,,,,,,2.7361622999887913,2.744143999996595,2.743703000014648,2.743703000014648,2.743703000014648,515518,001,2025-10-23_20h12.43.275,run,2024.2.4,None,2025-10-23 20h12.48.629958 +0800,
136,0,136,0,0,0,0,0,0,0,0,136,0,136,0,2.759512699994957,,,,,,,,,,,,,2.745211300003575,2.745250900014071,,,,515518,001,2025-10-23_20h12.43.275,run,2024.2.4,None,2025-10-23 20h12.48.629958 +0800,
137,0,137,0,0,0,0,0,0,0,0,137,0,137,0,2.759512699994957,,,,,,,,,,,,,2.7461875999870244,2.7462202000024263,,,,515518,001,2025-10-23_20h12.43.275,run,2024.2.4,None,2025-10-23 20h12.48.629958 +0800,
138,0,138,0,0,0,0,0,0,0,0,138,0,138,0,2.759512699994957,,,,,,,,,,,,,2.74704039999051,2.747077400010312,,,,515518,001,2025-10-23_20h12.43.275,run,2024.2.4,None,2025-10-23 20h12.48.629958 +0800,
139,0,139,0,0,0,0,0,0,0,0,139,0,139,0,2.759512699994957,,,,,,,,,,,,,2.7479613999894354,2.7479882999905385,,,,515518,001,2025-10-23_20h12.43.275,run,2024.2.4,None,2025-10-23 20h12.48.629958 +0800,
140,0,140,0,0,0,0,0,0,0,0,140,0,140,0,2.759512699994957,,,,,,,,,,,,,2.7489643000008073,2.74899349999032,,,,515518,001,2025-10-23_20h12.43.275,run,2024.2.4,None,2025-10-23 20h12.48.629958 +0800,
141,0,141,0,0,0,0,0,0,0,0,141,0,141,0,2.759512699994957,,,,,,,,,,,,,2.7500148999970406,2.750045399996452,,,,515518,001,2025-10-23_20h12.43.275,run,2024.2.4,None,2025-10-23 20h12.48.629958 +0800,
142,0,142,0,0,0,0,0,0,0,0,142,0,142,0,2.759512699994957,,,,,,,,,,,,,2.7513408999948297,2.75137340000947,,,,515518,001,2025-10-23_20h12.43.275,run,2024.2.4,None,2025-10-23 20h12.48.629958 +0800,
143,0,143,0,0,0,0,0,0,0,0,143,0,143,0,2.759512699994957,,,,,,,,,,,,,2.751932000013767,2.759693600004539,2.759512699994957,2.759512699994957,2.759512699994957,515518,001,2025-10-23_20h12.43.275,run,2024.2.4,None,2025-10-23 20h12.48.629958 +0800,
144,0,144,0,0,0,0,0,0,0,0,144,0,144,0,2.7761562000086997,,,,,,,,,,,,,2.7612198000133503,2.761258100013947,,,,515518,001,2025-10-23_20h12.43.275,run,2024.2.4,None,2025-10-23 20h12.48.629958 +0800,
145,0,145,0,0,0,0,0,0,0,0,145,0,145,0,2.7761562000086997,,,,,,,,,,,,,2.76216340000974,2.762197700008983,,,,515518,001,2025-10-23_20h12.43.275,run,2024.2.4,None,2025-10-23 20h12.48.629958 +0800,
146,0,146,0,0,0,0,0,0,0,0,146,0,146,0,2.7761562000086997,,,,,,,,,,,,,2.7631221000046935,2.7631581999885384,,,,515518,001,2025-10-23_20h12.43.275,run,2024.2.4,None,2025-10-23 20h12.48.629958 +0800,
147,0,147,0,0,0,0,0,0,0,0,147,0,147,0,2.7761562000086997,,,,,,,,,,,,,2.764039600006072,2.764074700011406,,,,515518,001,2025-10-23_20h12.43.275,run,2024.2.4,None,2025-10-23 20h12.48.629958 +0800,
148,0,148,0,0,0,0,0,0,0,0,148,0,148,0,2.7761562000086997,,,,,,,,,,,,,2.7650189000123646,2.7650517000001855,,,,515518,001,2025-10-23_20h12.43.275,run,2024.2.4,None,2025-10-23 20h12.48.629958 +0800,
149,0,149,0,0,0,0,0,0,0,0,149,0,149,0,2.7761562000086997,,,,,,,,,,,,,2.7660610000020824,2.7660942999937106,,,,515518,001,2025-10-23_20h12.43.275,run,2024.2.4,None,2025-10-23 20h12.48.629958 +0800,
150,0,150,0,0,0,0,0,0,0,0,150,0,150,0,2.7761562000086997,,,,,,,,,,,,,2.766550600004848,2.7665815000073053,,,,515518,001,2025-10-23_20h12.43.275,run,2024.2.4,None,2025-10-23 20h12.48.629958 +0800,
151,0,151,0,0,0,0,0,0,0,0,151,0,151,0,2.7761562000086997,,,,,,,,,,,,,2.76705850000144,2.776329499989515,2.7761562000086997,2.7761562000086997,2.7761562000086997,515518,001,2025-10-23_20h12.43.275,run,2024.2.4,None,2025-10-23 20h12.48.629958 +0800,
152,0,152,0,0,0,0,0,0,0,0,152,0,152,0,2.793253999989247,,,,,,,,,,,,,2.7772841000114568,2.777326700015692,,,,515518,001,2025-10-23_20h12.43.275,run,2024.2.4,None,2025-10-23 20h12.48.629958 +0800,
153,0,153,0,0,0,0,0,0,0,0,153,0,153,0,2.793253999989247,,,,,,,,,,,,,2.778109500010032,2.778144899988547,,,,515518,001,2025-10-23_20h12.43.275,run,2024.2.4,None,2025-10-23 20h12.48.629958 +0800,
154,0,154,0,0,0,0,0,0,0,0,154,0,154,0,2.793253999989247,,,,,,,,,,,,,2.778966100013349,2.779003100004047,,,,515518,001,2025-10-23_20h12.43.275,run,2024.2.4,None,2025-10-23 20h12.48.629958 +0800,
155,0,155,0,0,0,0,0,0,0,0,155,0,155,0,2.793253999989247,,,,,,,,,,,,,2.7799227999930736,2.779949099989608,,,,515518,001,2025-10-23_20h12.43.275,run,2024.2.4,None,2025-10-23 20h12.48.629958 +0800,
156,0,156,0,0,0,0,0,0,0,0,156,0,156,0,2.793253999989247,,,,,,,,,,,,,2.7810164999973495,2.781045500014443,,,,515518,001,2025-10-23_20h12.43.275,run,2024.2.4,None,2025-10-23 20h12.48.629958 +0800,
157,0,157,0,0,0,0,0,0,0,0,157,0,157,0,2.793253999989247,,,,,,,,,,,,,2.782180400012294,2.7822173000022303,,,,515518,001,2025-10-23_20h12.43.275,run,2024.2.4,None,2025-10-23 20h12.48.629958 +0800,
158,0,158,0,0,0,0,0,0,0,0,158,0,158,0,2.793253999989247,,,,,,,,,,,,,2.783036800014088,2.7830681999912485,,,,515518,001,2025-10-23_20h12.43.275,run,2024.2.4,None,2025-10-23 20h12.48.629958 +0800,
159,0,159,0,0,0,0,0,0,0,0,159,0,159,0,2.793253999989247,,,,,,,,,,,,,2.7841787000070326,2.7934306999959517,2.793253999989247,2.793253999989247,2.793253999989247,515518,001,2025-10-23_20h12.43.275,run,2024.2.4,None,2025-10-23 20h12.48.629958 +0800,
160,0,160,0,0,0,0,0,0,0,0,160,0,160,0,2.8102092999906745,,,,,,,,,,,,,2.794139700010419,2.7941748999874108,,,,515518,001,2025-10-23_20h12.43.275,run,2024.2.4,None,2025-10-23 20h12.48.629958 +0800,
161,0,161,0,0,0,0,0,0,0,0,161,0,161,0,2.8102092999906745,,,,,,,,,,,,,2.795226099988213,2.7952665000048,,,,515518,001,2025-10-23_20h12.43.275,run,2024.2.4,None,2025-10-23 20h12.48.629958 +0800,
162,0,162,0,0,0,0,0,0,0,0,162,0,162,0,2.8102092999906745,,,,,,,,,,,,,2.7962037000106648,2.7962364999984857,,,,515518,001,2025-10-23_20h12.43.275,run,2024.2.4,None,2025-10-23 20h12.48.629958 +0800,
163,0,163,0,0,0,0,0,0,0,0,163,0,163,0,2.8102092999906745,,,,,,,,,,,,,2.796946799993748,2.796974199998658,,,,515518,001,2025-10-23_20h12.43.275,run,2024.2.4,None,2025-10-23 20h12.48.629958 +0800,
164,0,164,0,0,0,0,0,0,0,0,164,0,164,0,2.8102092999906745,,,,,,,,,,,,,2.798078499996336,2.7981099000026006,,,,515518,001,2025-10-23_20h12.43.275,run,2024.2.4,None,2025-10-23 20h12.48.629958 +0800,
165,0,165,0,0,0,0,0,0,0,0,165,0,165,0,2.8102092999906745,,,,,,,,,,,,,2.7990038999996614,2.799032000009902,,,,515518,001,2025-10-23_20h12.43.275,run,2024.2.4,None,2025-10-23 20h12.48.629958 +0800,
166,0,166,0,0,0,0,0,0,0,0,166,0,166,0,2.8102092999906745,,,,,,,,,,,,,2.8001299999887124,2.8001549000036903,,,,515518,001,2025-10-23_20h12.43.275,run,2024.2.4,None,2025-10-23 20h12.48.629958 +0800,
167,0,167,0,0,0,0,0,0,0,0,167,0,167,0,2.8102092999906745,,,,,,,,,,,,,2.801005499990424,2.801037900004303,,,,515518,001,2025-10-23_20h12.43.275,run,2024.2.4,None,2025-10-23 20h12.48.629958 +0800,
168,0,168,0,0,0,0,0,0,0,0,168,0,168,0,2.8102092999906745,,,,,,,,,,,,,2.8021124000079,2.810386800003471,2.8102092999906745,2.8102092999906745,2.8102092999906745,515518,001,2025-10-23_20h12.43.275,run,2024.2.4,None,2025-10-23 20h12.48.629958 +0800,
169,0,169,0,0,0,0,0,0,0,0,169,0,169,0,2.8267085000115912,,,,,,,,,,,,,2.8115186000068206,2.811561700014863,,,,515518,001,2025-10-23_20h12.43.275,run,2024.2.4,None,2025-10-23 20h12.48.629958 +0800,
170,0,170,0,0,0,0,0,0,0,0,170,0,170,0,2.8267085000115912,,,,,,,,,,,,,2.812104200012982,2.812140099995304,,,,515518,001,2025-10-23_20h12.43.275,run,2024.2.4,None,2025-10-23 20h12.48.629958 +0800,
171,0,171,0,0,0,0,0,0,0,0,171,0,171,0,2.8267085000115912,,,,,,,,,,,,,2.8130475000070874,2.813078500010306,,,,515518,001,2025-10-23_20h12.43.275,run,2024.2.4,None,2025-10-23 20h12.48.629958 +0800,
172,0,172,0,0,0,0,0,0,0,0,172,0,172,0,2.8267085000115912,,,,,,,,,,,,,2.814180299988948,2.8142110999906436,,,,515518,001,2025-10-23_20h12.43.275,run,2024.2.4,None,2025-10-23 20h12.48.629958 +0800,
173,0,173,0,0,0,0,0,0,0,0,173,0,173,0,2.8267085000115912,,,,,,,,,,,,,2.815028599987272,2.815069800009951,,,,515518,001,2025-10-23_20h12.43.275,run,2024.2.4,None,2025-10-23 20h12.48.629958 +0800,
174,0,174,0,0,0,0,0,0,0,0,174,0,174,0,2.8267085000115912,,,,,,,,,,,,,2.816015199990943,2.816049999993993,,,,515518,001,2025-10-23_20h12.43.275,run,2024.2.4,None,2025-10-23 20h12.48.629958 +0800,
175,0,175,0,0,0,0,0,0,0,0,175,0,175,0,2.8267085000115912,,,,,,,,,,,,,2.817104899993865,2.8171372000069823,,,,515518,001,2025-10-23_20h12.43.275,run,2024.2.4,None,2025-10-23 20h12.48.629958 +0800,
176,0,176,0,0,0,0,0,0,0,0,176,0,176,0,2.8267085000115912,,,,,,,,,,,,,2.8180376999953296,2.8271423999976832,2.8267085000115912,2.8267085000115912,2.8267085000115912,515518,001,2025-10-23_20h12.43.275,run,2024.2.4,None,2025-10-23 20h12.48.629958 +0800,
177,0,177,0,0,0,0,0,0,0,0,177,0,177,0,2.8443896000098903,,,,,,,,,,,,,2.8287214000010863,2.828793199994834,,,,515518,001,2025-10-23_20h12.43.275,run,2024.2.4,None,2025-10-23 20h12.48.629958 +0800,
178,0,178,0,0,0,0,0,0,0,0,178,0,178,0,2.8443896000098903,,,,,,,,,,,,,2.830066900001839,2.830097600002773,,,,515518,001,2025-10-23_20h12.43.275,run,2024.2.4,None,2025-10-23 20h12.48.629958 +0800,
179,0,179,0,0,0,0,0,0,0,0,179,0,179,0,2.8443896000098903,,,,,,,,,,,,,2.831142799986992,2.8311733000155073,,,,515518,001,2025-10-23_20h12.43.275,run,2024.2.4,None,2025-10-23 20h12.48.629958 +0800,
180,0,180,0,0,0,0,0,0,0,0,180,0,180,0,2.8443896000098903,,,,,,,,,,,,,2.8320810000004712,2.8321238000062294,,,,515518,001,2025-10-23_20h12.43.275,run,2024.2.4,None,2025-10-23 20h12.48.629958 +0800,
181,0,181,0,0,0,0,0,0,0,0,181,0,181,0,2.8443896000098903,,,,,,,,,,,,,2.8330078000144567,2.83304309999221,,,,515518,001,2025-10-23_20h12.43.275,run,2024.2.4,None,2025-10-23 20h12.48.629958 +0800,
182,0,182,0,0,0,0,0,0,0,0,182,0,182,0,2.8443896000098903,,,,,,,,,,,,,2.834036499989452,2.834072500001639,,,,515518,001,2025-10-23_20h12.43.275,run,2024.2.4,None,2025-10-23 20h12.48.629958 +0800,
183,0,183,0,0,0,0,0,0,0,0,183,0,183,0,2.8443896000098903,,,,,,,,,,,,,2.8349277999950573,2.8349516000016592,,,,515518,001,2025-10-23_20h12.43.275,run,2024.2.4,None,2025-10-23 20h12.48.629958 +0800,
184,0,184,0,0,0,0,0,0,0,0,184,0,184,0,2.8443896000098903,,,,,,,,,,,,,2.836318699992262,2.836367500014603,,,,515518,001,2025-10-23_20h12.43.275,run,2024.2.4,None,2025-10-23 20h12.48.629958 +0800,
185,0,185,0,0,0,0,0,0,0,0,185,0,185,0,2.8443896000098903,,,,,,,,,,,,,2.836879999988014,2.836910300015006,,,,515518,001,2025-10-23_20h12.43.275,run,2024.2.4,None,2025-10-23 20h12.48.629958 +0800,
186,0,186,0,0,0,0,0,0,0,0,186,0,186,0,2.8443896000098903,,,,,,,,,,,,,2.838020299997879,2.845089899987215,2.8443896000098903,2.8443896000098903,2.8443896000098903,515518,001,2025-10-23_20h12.43.275,run,2024.2.4,None,2025-10-23 20h12.48.629958 +0800,
187,0,187,0,0,0,0,0,0,0,0,187,0,187,0,2.85931349999737,,,,,,,,,,,,,2.8463826999941375,2.8464160000148695,,,,515518,001,2025-10-23_20h12.43.275,run,2024.2.4,None,2025-10-23 20h12.48.629958 +0800,
188,0,188,0,0,0,0,0,0,0,0,188,0,188,0,2.85931349999737,,,,,,,,,,,,,2.8472602000110783,2.8472918999905232,,,,515518,001,2025-10-23_20h12.43.275,run,2024.2.4,None,2025-10-23 20h12.48.629958 +0800,
189,0,189,0,0,0,0,0,0,0,0,189,0,189,0,2.85931349999737,,,,,,,,,,,,,2.8481363999890164,2.8481656000076327,,,,515518,001,2025-10-23_20h12.43.275,run,2024.2.4,None,2025-10-23 20h12.48.629958 +0800,
190,0,190,0,0,0,0,0,0,0,0,190,0,190,0,2.85931349999737,,,,,,,,,,,,,2.8491220000141766,2.8491594000079203,,,,515518,001,2025-10-23_20h12.43.275,run,2024.2.4,None,2025-10-23 20h12.48.629958 +0800,
191,0,191,0,0,0,0,0,0,0,0,191,0,191,0,2.85931349999737,,,,,,,,,,,,,2.8499805000028573,2.850022500002524,,,,515518,001,2025-10-23_20h12.43.275,run,2024.2.4,None,2025-10-23 20h12.48.629958 +0800,
192,0,192,0,0,0,0,0,0,0,0,192,0,192,0,2.85931349999737,,,,,,,,,,,,,2.8512604999996256,2.8512913000013214,,,,515518,001,2025-10-23_20h12.43.275,run,2024.2.4,None,2025-10-23 20h12.48.629958 +0800,
193,0,193,0,0,0,0,0,0,0,0,193,0,193,0,2.85931349999737,,,,,,,,,,,,,2.8519741999916732,2.8594760000123642,2.85931349999737,2.85931349999737,2.85931349999737,515518,001,2025-10-23_20h12.43.275,run,2024.2.4,None,2025-10-23 20h12.48.629958 +0800,
194,0,194,0,0,0,0,0,0,0,0,194,0,194,0,2.878662000002805,,,,,,,,,,,,,2.860214599990286,2.860253199993167,,,,515518,001,2025-10-23_20h12.43.275,run,2024.2.4,None,2025-10-23 20h12.48.629958 +0800,
195,0,195,0,0,0,0,0,0,0,0,195,0,195,0,2.878662000002805,,,,,,,,,,,,,2.8614562000148,2.8615198000043165,,,,515518,001,2025-10-23_20h12.43.275,run,2024.2.4,None,2025-10-23 20h12.48.629958 +0800,
196,0,196,0,0,0,0,0,0,0,0,196,0,196,0,2.878662000002805,,,,,,,,,,,,,2.8630365999997593,2.863070699997479,,,,515518,001,2025-10-23_20h12.43.275,run,2024.2.4,None,2025-10-23 20h12.48.629958 +0800,
197,0,197,0,0,0,0,0,0,0,0,197,0,197,0,2.878662000002805,,,,,,,,,,,,,2.8641079000080936,2.8641396999883,,,,515518,001,2025-10-23_20h12.43.275,run,2024.2.4,None,2025-10-23 20h12.48.629958 +0800,
198,0,198,0,0,0,0,0,0,0,0,198,0,198,0,2.878662000002805,,,,,,,,,,,,,2.8651697000022978,2.8652043000038248,,,,515518,001,2025-10-23_20h12.43.275,run,2024.2.4,None,2025-10-23 20h12.48.629958 +0800,
199,0,199,0,0,0,0,0,0,0,0,199,0,199,0,2.878662000002805,,,,,,,,,,,,,2.8660029000020586,2.8660330999991857,,,,515518,001,2025-10-23_20h12.43.275,run,2024.2.4,None,2025-10-23 20h12.48.629958 +0800,
200,0,200,0,0,0,0,0,0,0,0,200,0,200,0,2.878662000002805,,,,,,,,,,,,,2.866939800005639,2.866969099995913,,,,515518,001,2025-10-23_20h12.43.275,run,2024.2.4,None,2025-10-23 20h12.48.629958 +0800,
201,0,201,0,0,0,0,0,0,0,0,201,0,201,0,2.878662000002805,,,,,,,,,,,,,2.868096499994863,2.8788791999977548,2.878662000002805,2.878662000002805,2.878662000002805,515518,001,2025-10-23_20h12.43.275,run,2024.2.4,None,2025-10-23 20h12.48.629958 +0800,
202,0,202,0,0,0,0,0,0,0,0,202,0,202,0,2.8928567999973893,,,,,,,,,,,,,2.879424399987329,2.8794649000046775,,,,515518,001,2025-10-23_20h12.43.275,run,2024.2.4,None,2025-10-23 20h12.48.629958 +0800,
203,0,203,0,0,0,0,0,0,0,0,203,0,203,0,2.8928567999973893,,,,,,,,,,,,,2.8799896000127774,2.8800210999906994,,,,515518,001,2025-10-23_20h12.43.275,run,2024.2.4,None,2025-10-23 20h12.48.629958 +0800,
204,0,204,0,0,0,0,0,0,0,0,204,0,204,0,2.8928567999973893,,,,,,,,,,,,,2.880931199993938,2.8809576999919955,,,,515518,001,2025-10-23_20h12.43.275,run,2024.2.4,None,2025-10-23 20h12.48.629958 +0800,
205,0,205,0,0,0,0,0,0,0,0,205,0,205,0,2.8928567999973893,,,,,,,,,,,,,2.882034600013867,2.882081099989591,,,,515518,001,2025-10-23_20h12.43.275,run,2024.2.4,None,2025-10-23 20h12.48.629958 +0800,
206,0,206,0,0,0,0,0,0,0,0,206,0,206,0,2.8928567999973893,,,,,,,,,,,,,2.8830546000099275,2.8830923000059556,,,,515518,001,2025-10-23_20h12.43.275,run,2024.2.4,None,2025-10-23 20h12.48.629958 +0800,
207,0,207,0,0,0,0,0,0,0,0,207,0,207,0,2.8928567999973893,,,,,,,,,,,,,2.8839676000061445,2.8839966999948956,,,,515518,001,2025-10-23_20h12.43.275,run,2024.2.4,None,2025-10-23 20h12.48.629958 +0800,
208,0,208,0,0,0,0,0,0,0,0,208,0,208,0,2.8928567999973893,,,,,,,,,,,,,2.8849496000038926,2.8849742999882437,,,,515518,001,2025-10-23_20h12.43.275,run,2024.2.4,None,2025-10-23 20h12.48.629958 +0800,
209,0,209,0,0,0,0,0,0,0,0,209,0,209,0,2.8928567999973893,,,,,,,,,,,,,2.8860288000141736,2.886083299992606,,,,515518,001,2025-10-23_20h12.43.275,run,2024.2.4,None,2025-10-23 20h12.48.629958 +0800,
210,0,210,0,0,0,0,0,0,0,0,210,0,210,0,2.8928567999973893,,,,,,,,,,,,,2.887039299996104,2.887073199992301,,,,515518,001,2025-10-23_20h12.43.275,run,2024.2.4,None,2025-10-23 20h12.48.629958 +0800,
211,0,211,0,0,0,0,0,0,0,0,211,0,211,0,2.8928567999973893,,,,,,,,,,,,,2.8880419000051916,2.8930230000114534,2.8928567999973893,2.8928567999973893,2.8928567999973893,515518,001,2025-10-23_20h12.43.275,run,2024.2.4,None,2025-10-23 20h12.48.629958 +0800,
212,0,212,0,0,0,0,0,0,0,0,212,0,212,0,2.9091695999959484,,,,,,,,,,,,,2.8943625999963842,2.8944365000061225,,,,515518,001,2025-10-23_20h12.43.275,run,2024.2.4,None,2025-10-23 20h12.48.629958 +0800,
213,0,213,0,0,0,0,0,0,0,0,213,0,213,0,2.9091695999959484,,,,,,,,,,,,,2.8953285999887157,2.8953635999932885,,,,515518,001,2025-10-23_20h12.43.275,run,2024.2.4,None,2025-10-23 20h12.48.629958 +0800,
214,0,214,0,0,0,0,0,0,0,0,214,0,214,0,2.9091695999959484,,,,,,,,,,,,,2.896013399993535,2.8960484999988694,,,,515518,001,2025-10-23_20h12.43.275,run,2024.2.4,None,2025-10-23 20h12.48.629958 +0800,
215,0,215,0,0,0,0,0,0,0,0,215,0,215,0,2.9091695999959484,,,,,,,,,,,,,2.897052399988752,2.8970793999906164,,,,515518,001,2025-10-23_20h12.43.275,run,2024.2.4,None,2025-10-23 20h12.48.629958 +0800,
216,0,216,0,0,0,0,0,0,0,0,216,0,216,0,2.9091695999959484,,,,,,,,,,,,,2.898103000014089,2.9093218999914825,2.9091695999959484,2.9091695999959484,2.9091695999959484,515518,001,2025-10-23_20h12.43.275,run,2024.2.4,None,2025-10-23 20h12.48.629958 +0800,
217,0,217,0,0,0,0,0,0,0,0,217,0,217,0,2.926820900000166,,,,,,,,,,,,,2.9102266000118107,2.9102607000095304,,,,515518,001,2025-10-23_20h12.43.275,run,2024.2.4,None,2025-10-23 20h12.48.629958 +0800,
218,0,218,0,0,0,0,0,0,0,0,218,0,218,0,2.926820900000166,,,,,,,,,,,,,2.911053699994227,2.91108940000413,,,,515518,001,2025-10-23_20h12.43.275,run,2024.2.4,None,2025-10-23 20h12.48.629958 +0800,
219,0,219,0,0,0,0,0,0,0,0,219,0,219,0,2.926820900000166,,,,,,,,,,,,,2.9121793000085745,2.912215999996988,,,,515518,001,2025-10-23_20h12.43.275,run,2024.2.4,None,2025-10-23 20h12.48.629958 +0800,
220,0,220,0,0,0,0,0,0,0,0,220,0,220,0,2.926820900000166,,,,,,,,,,,,,2.9130888000072446,2.9131188000028487,,,,515518,001,2025-10-23_20h12.43.275,run,2024.2.4,None,2025-10-23 20h12.48.629958 +0800,
221,0,221,0,0,0,0,0,0,0,0,221,0,221,0,2.926820900000166,,,,,,,,,,,,,2.914048000006005,2.9140794000122696,,,,515518,001,2025-10-23_20h12.43.275,run,2024.2.4,None,2025-10-23 20h12.48.629958 +0800,
222,0,222,0,0,0,0,0,0,0,0,222,0,222,0,2.926820900000166,,,,,,,,,,,,,2.9151455000101123,2.915184400015278,,,,515518,001,2025-10-23_20h12.43.275,run,2024.2.4,None,2025-10-23 20h12.48.629958 +0800,
223,0,223,0,0,0,0,0,0,0,0,223,0,223,0,2.926820900000166,,,,,,,,,,,,,2.9160123000037856,2.91604370001005,,,,515518,001,2025-10-23_20h12.43.275,run,2024.2.4,None,2025-10-23 20h12.48.629958 +0800,
224,0,224,0,0,0,0,0,0,0,0,224,0,224,0,2.926820900000166,,,,,,,,,,,,,2.916943199990783,2.9169741999940015,,,,515518,001,2025-10-23_20h12.43.275,run,2024.2.4,None,2025-10-23 20h12.48.629958 +0800,
225,0,225,0,0,0,0,0,0,0,0,225,0,225,0,2.926820900000166,,,,,,,,,,,,,2.9181102000002284,2.9181394999905024,,,,515518,001,2025-10-23_20h12.43.275,run,2024.2.4,None,2025-10-23 20h12.48.629958 +0800,
226,0,226,0,0,0,0,0,0,0,0,226,0,226,0,2.926820900000166,,,,,,,,,,,,,2.9191097000148147,2.919140799989691,,,,515518,001,2025-10-23_20h12.43.275,run,2024.2.4,None,2025-10-23 20h12.48.629958 +0800,
227,0,227,0,0,0,0,0,0,0,0,227,0,227,0,2.926820900000166,,,,,,,,,,,,,2.9203184999933,2.9269929000001866,2.926820900000166,2.926820900000166,2.926820900000166,515518,001,2025-10-23_20h12.43.275,run,2024.2.4,None,2025-10-23 20h12.48.629958 +0800,
228,0,228,0,0,0,0,0,0,0,0,228,0,228,0,2.9424492999969516,,,,,,,,,,,,,2.928320100007113,2.9283633999875747,,,,515518,001,2025-10-23_20h12.43.275,run,2024.2.4,None,2025-10-23 20h12.48.629958 +0800,
229,0,229,0,0,0,0,0,0,0,0,229,0,229,0,2.9424492999969516,,,,,,,,,,,,,2.9291176999977324,2.9291528000030667,,,,515518,001,2025-10-23_20h12.43.275,run,2024.2.4,None,2025-10-23 20h12.48.629958 +0800,
230,0,230,0,0,0,0,0,0,0,0,230,0,230,0,2.9424492999969516,,,,,,,,,,,,,2.9301062999875285,2.93013679998694,,,,515518,001,2025-10-23_20h12.43.275,run,2024.2.4,None,2025-10-23 20h12.48.629958 +0800,
231,0,231,0,0,0,0,0,0,0,0,231,0,231,0,2.9424492999969516,,,,,,,,,,,,,2.9309307000075933,2.930959299992537,,,,515518,001,2025-10-23_20h12.43.275,run,2024.2.4,None,2025-10-23 20h12.48.629958 +0800,
232,0,232,0,0,0,0,0,0,0,0,232,0,232,0,2.9424492999969516,,,,,,,,,,,,,2.9321817999880295,2.932214800006477,,,,515518,001,2025-10-23_20h12.43.275,run,2024.2.4,None,2025-10-23 20h12.48.629958 +0800,
233,0,233,0,0,0,0,0,0,0,0,233,0,233,0,2.9424492999969516,,,,,,,,,,,,,2.9328585999901406,2.932888200011803,,,,515518,001,2025-10-23_20h12.43.275,run,2024.2.4,None,2025-10-23 20h12.48.629958 +0800,
234,0,234,0,0,0,0,0,0,0,0,234,0,234,0,2.9424492999969516,,,,,,,,,,,,,2.93394139999873,2.942617499997141,2.9424492999969516,2.9424492999969516,2.9424492999969516,515518,001,2025-10-23_20h12.43.275,run,2024.2.4,None,2025-10-23 20h12.48.629958 +0800,
235,0,235,0,0,0,0,0,0,0,0,235,0,235,0,3.0462649000110105,,,,,,,,,,,,,2.9442008000041824,2.9442415999947116,,,,515518,001,2025-10-23_20h12.43.275,run,2024.2.4,None,2025-10-23 20h12.48.629958 +0800,
236,0,236,0,0,0,0,0,0,0,0,236,0,236,0,3.0462649000110105,,,,,,,,,,,,,2.9451299000065774,2.945168800011743,,,,515518,001,2025-10-23_20h12.43.275,run,2024.2.4,None,2025-10-23 20h12.48.629958 +0800,
237,0,237,0,0,0,0,0,0,0,0,237,0,237,0,3.0462649000110105,,,,,,,,,,,,,2.988973600004101,2.9890272000047844,,,,515518,001,2025-10-23_20h12.43.275,run,2024.2.4,None,2025-10-23 20h12.48.629958 +0800,
238,0,238,0,0,0,0,0,0,0,0,238,0,238,0,3.0462649000110105,,,,,,,,,,,,,2.9900835000153165,2.990125000011176,,,,515518,001,2025-10-23_20h12.43.275,run,2024.2.4,None,2025-10-23 20h12.48.629958 +0800,
239,0,239,0,0,0,0,0,0,0,0,239,0,239,0,3.0462649000110105,,,,,,,,,,,,,2.9911996999871917,2.991237500013085,,,,515518,001,2025-10-23_20h12.43.275,run,2024.2.4,None,2025-10-23 20h12.48.629958 +0800,
240,0,240,0,0,0,0,0,0,0,0,240,0,240,0,3.0462649000110105,,,,,,,,,,,,,2.9921810000087135,2.9922154000087176,,,,515518,001,2025-10-23_20h12.43.275,run,2024.2.4,None,2025-10-23 20h12.48.629958 +0800,
241,0,241,0,0,0,0,0,0,0,0,241,0,241,0,3.0462649000110105,,,,,,,,,,,,,2.993101800006116,2.993151000002399,,,,515518,001,2025-10-23_20h12.43.275,run,2024.2.4,None,2025-10-23 20h12.48.629958 +0800,
242,0,242,0,0,0,0,0,0,0,0,242,0,242,0,3.0462649000110105,,,,,,,,,,,,,2.9940602999995463,2.9941073000081815,,,,515518,001,2025-10-23_20h12.43.275,run,2024.2.4,None,2025-10-23 20h12.48.629958 +0800,
243,0,243,0,0,0,0,0,0,0,0,243,0,243,0,3.0462649000110105,,,,,,,,,,,,,2.9950055000081193,2.995041599991964,,,,515518,001,2025-10-23_20h12.43.275,run,2024.2.4,None,2025-10-23 20h12.48.629958 +0800,
244,0,244,0,0,0,0,0,0,0,0,244,0,244,0,3.0462649000110105,,,,,,,,,,,,,2.9960415000095963,2.996080799988704,,,,515518,001,2025-10-23_20h12.43.275,run,2024.2.4,None,2025-10-23 20h12.48.629958 +0800,
245,0,245,0,0,0,0,0,0,0,0,245,0,245,0,3.0462649000110105,,,,,,,,,,,,,2.9970481999916956,2.9970808000070974,,,,515518,001,2025-10-23_20h12.43.275,run,2024.2.4,None,2025-10-23 20h12.48.629958 +0800,
246,0,246,0,0,0,0,0,0,0,0,246,0,246,0,3.0462649000110105,,,,,,,,,,,,,2.997958199994173,2.9979880999890156,,,,515518,001,2025-10-23_20h12.43.275,run,2024.2.4,None,2025-10-23 20h12.48.629958 +0800,
247,0,247,0,0,0,0,0,0,0,0,247,0,247,0,3.0462649000110105,,,,,,,,,,,,,2.9989643000008073,2.998998800001573,,,,515518,001,2025-10-23_20h12.43.275,run,2024.2.4,None,2025-10-23 20h12.48.629958 +0800,
248,0,248,0,0,0,0,0,0,0,0,248,0,248,0,3.0462649000110105,,,,,,,,,,,,,3.000033499993151,3.0000728000013623,,,,515518,001,2025-10-23_20h12.43.275,run,2024.2.4,None,2025-10-23 20h12.48.629958 +0800,
249,0,249,0,0,0,0,0,0,0,0,249,0,249,0,3.0462649000110105,,,,,,,,,,,,,3.0010637000086717,3.0010999999940395,,,,515518,001,2025-10-23_20h12.43.275,run,2024.2.4,None,2025-10-23 20h12.48.629958 +0800,
250,0,250,0,0,0,0,0,0,0,0,250,0,250,0,3.0462649000110105,,,,,,,,,,,,,3.0020375000021886,3.0020697000145447,,,,515518,001,2025-10-23_20h12.43.275,run,2024.2.4,None,2025-10-23 20h12.48.629958 +0800,
251,0,251,0,0,0,0,0,0,0,0,251,0,251,0,3.0462649000110105,,,,,,,,,,,,,3.003128599986667,3.0031674999918323,,,,515518,001,2025-10-23_20h12.43.275,run,2024.2.4,None,2025-10-23 20h12.48.629958 +0800,
252,0,252,0,0,0,0,0,0,0,0,252,0,252,0,3.0462649000110105,,,,,,,,,,,,,3.004008199990494,3.004046699992614,,,,515518,001,2025-10-23_20h12.43.275,run,2024.2.4,None,2025-10-23 20h12.48.629958 +0800,
253,0,253,0,0,0,0,0,0,0,0,253,0,253,0,3.0462649000110105,,,,,,,,,,,,,3.0051080000121146,3.005170899996301,,,,515518,001,2025-10-23_20h12.43.275,run,2024.2.4,None,2025-10-23 20h12.48.629958 +0800,
254,0,254,0,0,0,0,0,0,0,0,254,0,254,0,3.0462649000110105,,,,,,,,,,,,,3.006139000004623,3.006179699994391,,,,515518,001,2025-10-23_20h12.43.275,run,2024.2.4,None,2025-10-23 20h12.48.629958 +0800,
255,0,255,0,0,0,0,0,0,0,0,255,0,255,0,3.0462649000110105,,,,,,,,,,,,,3.0071760000137147,3.007217700011097,,,,515518,001,2025-10-23_20h12.43.275,run,2024.2.4,None,2025-10-23 20h12.48.629958 +0800,
256,0,256,0,0,0,0,0,0,0,0,256,0,256,0,3.0462649000110105,,,,,,,,,,,,,3.0080628000141587,3.0080985999957193,,,,515518,001,2025-10-23_20h12.43.275,run,2024.2.4,None,2025-10-23 20h12.48.629958 +0800,
257,0,257,0,0,0,0,0,0,0,0,257,0,257,0,3.0462649000110105,,,,,,,,,,,,,3.0091423999983817,3.00918079999974,,,,515518,001,2025-10-23_20h12.43.275,run,2024.2.4,None,2025-10-23 20h12.48.629958 +0800,
258,0,258,0,0,0,0,0,0,0,0,258,0,258,0,3.0462649000110105,,,,,,,,,,,,,3.009985400014557,3.0100199000153225,,,,515518,001,2025-10-23_20h12.43.275,run,2024.2.4,None,2025-10-23 20h12.48.629958 +0800,
259,0,259,0,0,0,0,0,0,0,0,259,0,259,0,3.0462649000110105,,,,,,,,,,,,,3.0109993999940343,3.0110372999915853,,,,515518,001,2025-10-23_20h12.43.275,run,2024.2.4,None,2025-10-23 20h12.48.629958 +0800,
260,0,260,0,0,0,0,0,0,0,0,260,0,260,0,3.0462649000110105,,,,,,,,,,,,,3.0120318999979645,3.0120653999911156,,,,515518,001,2025-10-23_20h12.43.275,run,2024.2.4,None,2025-10-23 20h12.48.629958 +0800,
261,0,261,0,0,0,0,0,0,0,0,261,0,261,0,3.0462649000110105,,,,,,,,,,,,,3.0129977999895345,3.013030300004175,,,,515518,001,2025-10-23_20h12.43.275,run,2024.2.4,None,2025-10-23 20h12.48.629958 +0800,
262,0,262,0,0,0,0,0,0,0,0,262,0,262,0,3.0462649000110105,,,,,,,,,,,,,3.014227400009986,3.014264199999161,,,,515518,001,2025-10-23_20h12.43.275,run,2024.2.4,None,2025-10-23 20h12.48.629958 +0800,
263,0,263,0,0,0,0,0,0,0,0,263,0,263,0,3.0462649000110105,,,,,,,,,,,,,3.015065000014147,3.015098300005775,,,,515518,001,2025-10-23_20h12.43.275,run,2024.2.4,None,2025-10-23 20h12.48.629958 +0800,
264,0,264,0,0,0,0,0,0,0,0,264,0,264,0,3.0462649000110105,,,,,,,,,,,,,3.0160214999923483,3.0160519999917597,,,,515518,001,2025-10-23_20h12.43.275,run,2024.2.4,None,2025-10-23 20h12.48.629958 +0800,
265,0,265,0,0,0,0,0,0,0,0,265,0,265,0,3.0462649000110105,,,,,,,,,,,,,3.016958899999736,3.016991999989841,,,,515518,001,2025-10-23_20h12.43.275,run,2024.2.4,None,2025-10-23 20h12.48.629958 +0800,
266,0,266,0,0,0,0,0,0,0,0,266,0,266,0,3.0462649000110105,,,,,,,,,,,,,3.0180822999973316,3.0181203999964055,,,,515518,001,2025-10-23_20h12.43.275,run,2024.2.4,None,2025-10-23 20h12.48.629958 +0800,
267,0,267,0,0,0,0,0,0,0,0,267,0,267,0,3.0462649000110105,,,,,,,,,,,,,3.0191224000009242,3.019158899987815,,,,515518,001,2025-10-23_20h12.43.275,run,2024.2.4,None,2025-10-23 20h12.48.629958 +0800,
268,0,268,0,0,0,0,0,0,0,0,268,0,268,0,3.0462649000110105,,,,,,,,,,,,,3.020068400015589,3.020106999989366,,,,515518,001,2025-10-23_20h12.43.275,run,2024.2.4,None,2025-10-23 20h12.48.629958 +0800,
269,0,269,0,0,0,0,0,0,0,0,269,0,269,0,3.0462649000110105,,,,,,,,,,,,,3.0209990000003017,3.0210344000079203,,,,515518,001,2025-10-23_20h12.43.275,run,2024.2.4,None,2025-10-23 20h12.48.629958 +0800,
270,0,270,0,0,0,0,0,0,0,0,270,0,270,0,3.0462649000110105,,,,,,,,,,,,,3.0220100000151433,3.0220404000137933,,,,515518,001,2025-10-23_20h12.43.275,run,2024.2.4,None,2025-10-23 20h12.48.629958 +0800,
271,0,271,0,0,0,0,0,0,0,0,271,0,271,0,3.0462649000110105,,,,,,,,,,,,,3.023078500002157,3.0231146000151057,,,,515518,001,2025-10-23_20h12.43.275,run,2024.2.4,None,2025-10-23 20h12.48.629958 +0800,
272,0,272,0,0,0,0,0,0,0,0,272,0,272,0,3.0462649000110105,,,,,,,,,,,,,3.0241296000021975,3.024168000003556,,,,515518,001,2025-10-23_20h12.43.275,run,2024.2.4,None,2025-10-23 20h12.48.629958 +0800,
273,0,273,0,0,0,0,0,0,0,0,273,0,273,0,3.0462649000110105,,,,,,,,,,,,,3.0251106999930926,3.02515180001501,,,,515518,001,2025-10-23_20h12.43.275,run,2024.2.4,None,2025-10-23 20h12.48.629958 +0800,
274,0,274,0,0,0,0,0,0,0,0,274,0,274,0,3.0462649000110105,,,,,,,,,,,,,3.026071400003275,3.0261099000053946,,,,515518,001,2025-10-23_20h12.43.275,run,2024.2.4,None,2025-10-23 20h12.48.629958 +0800,
275,0,275,0,0,0,0,0,0,0,0,275,0,275,0,3.0462649000110105,,,,,,,,,,,,,3.026994299987564,3.0270263999991585,,,,515518,001,2025-10-23_20h12.43.275,run,2024.2.4,None,2025-10-23 20h12.48.629958 +0800,
276,0,276,0,0,0,0,0,0,0,0,276,0,276,0,3.0462649000110105,,,,,,,,,,,,,3.0282258999941405,3.0282656000053976,,,,515518,001,2025-10-23_20h12.43.275,run,2024.2.4,None,2025-10-23 20h12.48.629958 +0800,
277,0,277,0,0,0,0,0,0,0,0,277,0,277,0,3.0462649000110105,,,,,,,,,,,,,3.0289632999920286,3.029004999989411,,,,515518,001,2025-10-23_20h12.43.275,run,2024.2.4,None,2025-10-23 20h12.48.629958 +0800,
278,0,278,0,0,0,0,0,0,0,0,278,0,278,0,3.0462649000110105,,,,,,,,,,,,,3.030043700011447,3.0300786000152584,,,,515518,001,2025-10-23_20h12.43.275,run,2024.2.4,None,2025-10-23 20h12.48.629958 +0800,
279,0,279,0,0,0,0,0,0,0,0,279,0,279,0,3.0462649000110105,,,,,,,,,,,,,3.0310664999997243,3.031102800014196,,,,515518,001,2025-10-23_20h12.43.275,run,2024.2.4,None,2025-10-23 20h12.48.629958 +0800,
280,0,280,0,0,0,0,0,0,0,0,280,0,280,0,3.0462649000110105,,,,,,,,,,,,,3.032060500001535,3.03209799999604,,,,515518,001,2025-10-23_20h12.43.275,run,2024.2.4,None,2025-10-23 20h12.48.629958 +0800,
281,0,281,0,0,0,0,0,0,0,0,281,0,281,0,3.0462649000110105,,,,,,,,,,,,,3.033101800014265,3.033138800004963,,,,515518,001,2025-10-23_20h12.43.275,run,2024.2.4,None,2025-10-23 20h12.48.629958 +0800,
282,0,282,0,0,0,0,0,0,0,0,282,0,282,0,3.0462649000110105,,,,,,,,,,,,,3.034125000005588,3.0341602000116836,,,,515518,001,2025-10-23_20h12.43.275,run,2024.2.4,None,2025-10-23 20h12.48.629958 +0800,
283,0,283,0,0,0,0,0,0,0,0,283,0,283,0,3.0462649000110105,,,,,,,,,,,,,3.0349932000099216,3.0350236000085715,,,,515518,001,2025-10-23_20h12.43.275,run,2024.2.4,None,2025-10-23 20h12.48.629958 +0800,
284,0,284,0,0,0,0,0,0,0,0,284,0,284,0,3.0462649000110105,,,,,,,,,,,,,3.0361650999984704,3.036274100013543,,,,515518,001,2025-10-23_20h12.43.275,run,2024.2.4,None,2025-10-23 20h12.48.629958 +0800,
285,0,285,0,0,0,0,0,0,0,0,285,0,285,0,3.0462649000110105,,,,,,,,,,,,,3.0370464999869,3.037084000010509,,,,515518,001,2025-10-23_20h12.43.275,run,2024.2.4,None,2025-10-23 20h12.48.629958 +0800,
286,0,286,0,0,0,0,0,0,0,0,286,0,286,0,3.0462649000110105,,,,,,,,,,,,,3.038296300015645,3.0467111000034492,3.0462649000110105,3.0462649000110105,3.0462649000110105,515518,001,2025-10-23_20h12.43.275,run,2024.2.4,None,2025-10-23 20h12.48.629958 +0800,
287,0,287,0,0,0,0,0,0,0,0,287,0,287,0,3.063560899987351,,,,,,,,,,,,,3.0482125999988057,3.048290700011421,,,,515518,001,2025-10-23_20h12.43.275,run,2024.2.4,None,2025-10-23 20h12.48.629958 +0800,
288,0,288,0,0,0,0,0,0,0,0,288,0,288,0,3.063560899987351,,,,,,,,,,,,,3.0491720999998506,3.049230400007218,,,,515518,001,2025-10-23_20h12.43.275,run,2024.2.4,None,2025-10-23 20h12.48.629958 +0800,
289,0,289,0,0,0,0,0,0,0,0,289,0,289,0,3.063560899987351,,,,,,,,,,,,,3.0501785000087693,3.050217200012412,,,,515518,001,2025-10-23_20h12.43.275,run,2024.2.4,None,2025-10-23 20h12.48.629958 +0800,
290,0,290,0,0,0,0,0,0,0,0,290,0,290,0,3.063560899987351,,,,,,,,,,,,,3.0510345000075176,3.05107690001023,,,,515518,001,2025-10-23_20h12.43.275,run,2024.2.4,None,2025-10-23 20h12.48.629958 +0800,
291,0,291,0,0,0,0,0,0,0,0,291,0,291,0,3.063560899987351,,,,,,,,,,,,,3.0519765999924857,3.052011499996297,,,,515518,001,2025-10-23_20h12.43.275,run,2024.2.4,None,2025-10-23 20h12.48.629958 +0800,
292,0,292,0,0,0,0,0,0,0,0,292,0,292,0,3.063560899987351,,,,,,,,,,,,,3.053025000001071,3.053063300001668,,,,515518,001,2025-10-23_20h12.43.275,run,2024.2.4,None,2025-10-23 20h12.48.629958 +0800,
293,0,293,0,0,0,0,0,0,0,0,293,0,293,0,3.063560899987351,,,,,,,,,,,,,3.0540807000070345,3.05411590001313,,,,515518,001,2025-10-23_20h12.43.275,run,2024.2.4,None,2025-10-23 20h12.48.629958 +0800,
294,0,294,0,0,0,0,0,0,0,0,294,0,294,0,3.063560899987351,,,,,,,,,,,,,3.055022199987434,3.0550529999891296,,,,515518,001,2025-10-23_20h12.43.275,run,2024.2.4,None,2025-10-23 20h12.48.629958 +0800,
295,0,295,0,0,0,0,0,0,0,0,295,0,295,0,3.063560899987351,,,,,,,,,,,,,3.0560695999884047,3.06375040000421,3.063560899987351,3.063560899987351,3.063560899987351,515518,001,2025-10-23_20h12.43.275,run,2024.2.4,None,2025-10-23 20h12.48.629958 +0800,
296,0,296,0,0,0,0,0,0,0,0,296,0,296,0,3.0763999999908265,,,,,,,,,,,,,3.065338399988832,3.065406300011091,,,,515518,001,2025-10-23_20h12.43.275,run,2024.2.4,None,2025-10-23 20h12.48.629958 +0800,
297,0,297,0,0,0,0,0,0,0,0,297,0,297,0,3.0763999999908265,,,,,,,,,,,,,3.0660573999921326,3.066095199988922,,,,515518,001,2025-10-23_20h12.43.275,run,2024.2.4,None,2025-10-23 20h12.48.629958 +0800,
298,0,298,0,0,0,0,0,0,0,0,298,0,298,0,3.0763999999908265,,,,,,,,,,,,,3.0669979999947827,3.0670299000048544,,,,515518,001,2025-10-23_20h12.43.275,run,2024.2.4,None,2025-10-23 20h12.48.629958 +0800,
299,0,299,0,0,0,0,0,0,0,0,299,0,299,0,3.0763999999908265,,,,,,,,,,,,,3.068234800011851,3.0682687000080477,,,,515518,001,2025-10-23_20h12.43.275,run,2024.2.4,None,2025-10-23 20h12.48.629958 +0800,
300,0,300,0,0,0,0,0,0,0,0,300,0,300,0,3.0763999999908265,,,,,,,,,,,,,3.0691204000031576,3.069156000012299,,,,515518,001,2025-10-23_20h12.43.275,run,2024.2.4,None,2025-10-23 20h12.48.629958 +0800,
301,0,301,0,0,0,0,0,0,0,0,301,0,301,0,3.0763999999908265,,,,,,,,,,,,,3.0701257000037003,3.070161300012842,,,,515518,001,2025-10-23_20h12.43.275,run,2024.2.4,None,2025-10-23 20h12.48.629958 +0800,
302,0,302,0,0,0,0,0,0,0,0,302,0,302,0,3.0763999999908265,,,,,,,,,,,,,3.0710942999867257,3.071128999989014,,,,515518,001,2025-10-23_20h12.43.275,run,2024.2.4,None,2025-10-23 20h12.48.629958 +0800,
303,0,303,0,0,0,0,0,0,0,0,303,0,303,0,3.0763999999908265,,,,,,,,,,,,,3.0721710000070743,3.07688480001525,3.0763999999908265,3.0763999999908265,3.0763999999908265,515518,001,2025-10-23_20h12.43.275,run,2024.2.4,None,2025-10-23 20h12.48.629958 +0800,
304,0,304,0,0,0,0,0,0,0,0,304,0,304,0,3.0877818999870215,,,,,,,,,,,,,3.07815980000305,3.0782039999903645,,,,515518,001,2025-10-23_20h12.43.275,run,2024.2.4,None,2025-10-23 20h12.48.629958 +0800,
305,0,305,0,0,0,0,0,0,0,0,305,0,305,0,3.0877818999870215,,,,,,,,,,,,,3.0791551000147592,3.0792006000119727,,,,515518,001,2025-10-23_20h12.43.275,run,2024.2.4,None,2025-10-23 20h12.48.629958 +0800,
306,0,306,0,0,0,0,0,0,0,0,306,0,306,0,3.0877818999870215,,,,,,,,,,,,,3.0800010999955703,3.080040900007589,,,,515518,001,2025-10-23_20h12.43.275,run,2024.2.4,None,2025-10-23 20h12.48.629958 +0800,
307,0,307,0,0,0,0,0,0,0,0,307,0,307,0,3.0877818999870215,,,,,,,,,,,,,3.0811437999946065,3.0811779999930877,,,,515518,001,2025-10-23_20h12.43.275,run,2024.2.4,None,2025-10-23 20h12.48.629958 +0800,
308,0,308,0,0,0,0,0,0,0,0,308,0,308,0,3.0877818999870215,,,,,,,,,,,,,3.0821026999910828,3.0879392999922857,3.0877818999870215,3.0877818999870215,3.0877818999870215,515518,001,2025-10-23_20h12.43.275,run,2024.2.4,None,2025-10-23 20h12.48.629958 +0800,
309,0,309,0,0,0,0,0,0,0,0,309,0,309,0,3.096225000015693,,,,,,,,,,,,,3.089170399995055,3.089205199998105,,,,515518,001,2025-10-23_20h12.43.275,run,2024.2.4,None,2025-10-23 20h12.48.629958 +0800,
310,0,310,0,0,0,0,0,0,0,0,310,0,310,0,3.096225000015693,,,,,,,,,,,,,3.0900876999949105,3.0901328999898396,,,,515518,001,2025-10-23_20h12.43.275,run,2024.2.4,None,2025-10-23 20h12.48.629958 +0800,
311,0,311,0,0,0,0,0,0,0,0,311,0,311,0,3.096225000015693,,,,,,,,,,,,,3.090537999989465,3.0905760999885388,,,,515518,001,2025-10-23_20h12.43.275,run,2024.2.4,None,2025-10-23 20h12.48.629958 +0800,
312,0,312,0,0,0,0,0,0,0,0,312,0,312,0,3.096225000015693,,,,,,,,,,,,,3.0909842000110075,3.091021300002467,,,,515518,001,2025-10-23_20h12.43.275,run,2024.2.4,None,2025-10-23 20h12.48.629958 +0800,
313,0,313,0,0,0,0,0,0,0,0,313,0,313,0,3.096225000015693,,,,,,,,,,,,,3.0920462000067346,3.0963968000141904,3.096225000015693,3.096225000015693,3.096225000015693,515518,001,2025-10-23_20h12.43.275,run,2024.2.4,None,2025-10-23 20h12.48.629958 +0800,
314,0,314,0,0,0,0,0,0,0,0,314,0,314,0,3.108593100012513,,,,,,,,,,,,,3.097267000004649,3.0973063000128604,,,,515518,001,2025-10-23_20h12.43.275,run,2024.2.4,None,2025-10-23 20h12.48.629958 +0800,
315,0,315,0,0,0,0,0,0,0,0,315,0,315,0,3.108593100012513,,,,,,,,,,,,,3.0981581000087317,3.0982010000152513,,,,515518,001,2025-10-23_20h12.43.275,run,2024.2.4,None,2025-10-23 20h12.48.629958 +0800,
316,0,316,0,0,0,0,0,0,0,0,316,0,316,0,3.108593100012513,,,,,,,,,,,,,3.0989819999958854,3.0990133000013884,,,,515518,001,2025-10-23_20h12.43.275,run,2024.2.4,None,2025-10-23 20h12.48.629958 +0800,
317,0,317,0,0,0,0,0,0,0,0,317,0,317,0,3.108593100012513,,,,,,,,,,,,,3.1000500000081956,3.1088217000069562,3.108593100012513,3.108593100012513,3.108593100012513,515518,001,2025-10-23_20h12.43.275,run,2024.2.4,None,2025-10-23 20h12.48.629958 +0800,
318,0,318,0,0,0,0,0,0,0,0,318,0,318,0,3.126463099993998,,,,,,,,,,,,,3.110107299988158,3.110142799996538,,,,515518,001,2025-10-23_20h12.43.275,run,2024.2.4,None,2025-10-23 20h12.48.629958 +0800,
319,0,319,0,0,0,0,0,0,0,0,319,0,319,0,3.126463099993998,,,,,,,,,,,,,3.1110132999892812,3.1110488999984227,,,,515518,001,2025-10-23_20h12.43.275,run,2024.2.4,None,2025-10-23 20h12.48.629958 +0800,
320,0,320,0,0,0,0,0,0,0,0,320,0,320,0,3.126463099993998,,,,,,,,,,,,,3.1123547999886796,3.1123987000028137,,,,515518,001,2025-10-23_20h12.43.275,run,2024.2.4,None,2025-10-23 20h12.48.629958 +0800,
321,0,321,0,0,0,0,0,0,0,0,321,0,321,0,3.126463099993998,,,,,,,,,,,,,3.113019100012025,3.1130509999929927,,,,515518,001,2025-10-23_20h12.43.275,run,2024.2.4,None,2025-10-23 20h12.48.629958 +0800,
322,0,322,0,0,0,0,0,0,0,0,322,0,322,0,3.126463099993998,,,,,,,,,,,,,3.1141337000008207,3.114186699996935,,,,515518,001,2025-10-23_20h12.43.275,run,2024.2.4,None,2025-10-23 20h12.48.629958 +0800,
323,0,323,0,0,0,0,0,0,0,0,323,0,323,0,3.126463099993998,,,,,,,,,,,,,3.1150431999994908,3.1150777000002563,,,,515518,001,2025-10-23_20h12.43.275,run,2024.2.4,None,2025-10-23 20h12.48.629958 +0800,
324,0,324,0,0,0,0,0,0,0,0,324,0,324,0,3.126463099993998,,,,,,,,,,,,,3.1159895999880973,3.1160244999919087,,,,515518,001,2025-10-23_20h12.43.275,run,2024.2.4,None,2025-10-23 20h12.48.629958 +0800,
325,0,325,0,0,0,0,0,0,0,0,325,0,325,0,3.126463099993998,,,,,,,,,,,,,3.1171983999956865,3.1172322999918833,,,,515518,001,2025-10-23_20h12.43.275,run,2024.2.4,None,2025-10-23 20h12.48.629958 +0800,
326,0,326,0,0,0,0,0,0,0,0,326,0,326,0,3.126463099993998,,,,,,,,,,,,,3.118027299991809,3.126655200001551,3.126463099993998,3.126463099993998,3.126463099993998,515518,001,2025-10-23_20h12.43.275,run,2024.2.4,None,2025-10-23 20h12.48.629958 +0800,
327,0,327,0,0,0,0,0,0,0,0,327,0,327,0,3.1420635000104085,,,,,,,,,,,,,3.1281985999958124,3.1282479999936186,,,,515518,001,2025-10-23_20h12.43.275,run,2024.2.4,None,2025-10-23 20h12.48.629958 +0800,
328,0,328,0,0,0,0,0,0,0,0,328,0,328,0,3.1420635000104085,,,,,,,,,,,,,3.1292121000005864,3.129255700012436,,,,515518,001,2025-10-23_20h12.43.275,run,2024.2.4,None,2025-10-23 20h12.48.629958 +0800,
329,0,329,0,0,0,0,0,0,0,0,329,0,329,0,3.1420635000104085,,,,,,,,,,,,,3.1300502000085544,3.1300858999893535,,,,515518,001,2025-10-23_20h12.43.275,run,2024.2.4,None,2025-10-23 20h12.48.629958 +0800,
330,0,330,0,0,0,0,0,0,0,0,330,0,330,0,3.1420635000104085,,,,,,,,,,,,,3.1310437000065576,3.131075499986764,,,,515518,001,2025-10-23_20h12.43.275,run,2024.2.4,None,2025-10-23 20h12.48.629958 +0800,
331,0,331,0,0,0,0,0,0,0,0,331,0,331,0,3.1420635000104085,,,,,,,,,,,,,3.132103400013875,3.1321533000154886,,,,515518,001,2025-10-23_20h12.43.275,run,2024.2.4,None,2025-10-23 20h12.48.629958 +0800,
332,0,332,0,0,0,0,0,0,0,0,332,0,332,0,3.1420635000104085,,,,,,,,,,,,,3.1330317000101786,3.1330665000132285,,,,515518,001,2025-10-23_20h12.43.275,run,2024.2.4,None,2025-10-23 20h12.48.629958 +0800,
333,0,333,0,0,0,0,0,0,0,0,333,0,333,0,3.1420635000104085,,,,,,,,,,,,,3.134054499998456,3.1340868000115734,,,,515518,001,2025-10-23_20h12.43.275,run,2024.2.4,None,2025-10-23 20h12.48.629958 +0800,
334,0,334,0,0,0,0,0,0,0,0,334,0,334,0,3.1420635000104085,,,,,,,,,,,,,3.1351963999914005,3.1352297000121325,,,,515518,001,2025-10-23_20h12.43.275,run,2024.2.4,None,2025-10-23 20h12.48.629958 +0800,
335,0,335,0,0,0,0,0,0,0,0,335,0,335,0,3.1420635000104085,,,,,,,,,,,,,3.1360187999962363,3.1422464000061154,3.1420635000104085,3.1420635000104085,3.1420635000104085,515518,001,2025-10-23_20h12.43.275,run,2024.2.4,None,2025-10-23 20h12.48.629958 +0800,
336,0,336,0,0,0,0,0,0,0,0,336,0,336,0,3.1544660000072327,,,,,,,,,,,,,3.143224300001748,3.1432614999939688,,,,515518,001,2025-10-23_20h12.43.275,run,2024.2.4,None,2025-10-23 20h12.48.629958 +0800,
337,0,337,0,0,0,0,0,0,0,0,337,0,337,0,3.1544660000072327,,,,,,,,,,,,,3.1442865999997593,3.1443402000004426,,,,515518,001,2025-10-23_20h12.43.275,run,2024.2.4,None,2025-10-23 20h12.48.629958 +0800,
338,0,338,0,0,0,0,0,0,0,0,338,0,338,0,3.1544660000072327,,,,,,,,,,,,,3.144985499995528,3.1450230999907944,,,,515518,001,2025-10-23_20h12.43.275,run,2024.2.4,None,2025-10-23 20h12.48.629958 +0800,
339,0,339,0,0,0,0,0,0,0,0,339,0,339,0,3.1544660000072327,,,,,,,,,,,,,3.146152200002689,3.14618640000117,,,,515518,001,2025-10-23_20h12.43.275,run,2024.2.4,None,2025-10-23 20h12.48.629958 +0800,
340,0,340,0,0,0,0,0,0,0,0,340,0,340,0,3.1544660000072327,,,,,,,,,,,,,3.1470316000049934,3.1470658000034746,,,,515518,001,2025-10-23_20h12.43.275,run,2024.2.4,None,2025-10-23 20h12.48.629958 +0800,
341,0,341,0,0,0,0,0,0,0,0,341,0,341,0,3.1544660000072327,,,,,,,,,,,,,3.147950000013225,3.1546414000040386,3.1544660000072327,3.1544660000072327,3.1544660000072327,515518,001,2025-10-23_20h12.43.275,run,2024.2.4,None,2025-10-23 20h12.48.629958 +0800,
342,0,342,0,0,0,0,0,0,0,0,342,0,342,0,3.1681766000110656,,,,,,,,,,,,,3.1561523000127636,3.156189400004223,,,,515518,001,2025-10-23_20h12.43.275,run,2024.2.4,None,2025-10-23 20h12.48.629958 +0800,
343,0,343,0,0,0,0,0,0,0,0,343,0,343,0,3.1681766000110656,,,,,,,,,,,,,3.157235699996818,3.1572757000103593,,,,515518,001,2025-10-23_20h12.43.275,run,2024.2.4,None,2025-10-23 20h12.48.629958 +0800,
344,0,344,0,0,0,0,0,0,0,0,344,0,344,0,3.1681766000110656,,,,,,,,,,,,,3.157968699990306,3.1580031999910716,,,,515518,001,2025-10-23_20h12.43.275,run,2024.2.4,None,2025-10-23 20h12.48.629958 +0800,
345,0,345,0,0,0,0,0,0,0,0,345,0,345,0,3.1681766000110656,,,,,,,,,,,,,3.159017900004983,3.15905320001184,,,,515518,001,2025-10-23_20h12.43.275,run,2024.2.4,None,2025-10-23 20h12.48.629958 +0800,
346,0,346,0,0,0,0,0,0,0,0,346,0,346,0,3.1681766000110656,,,,,,,,,,,,,3.1599996000004467,3.160032499989029,,,,515518,001,2025-10-23_20h12.43.275,run,2024.2.4,None,2025-10-23 20h12.48.629958 +0800,
347,0,347,0,0,0,0,0,0,0,0,347,0,347,0,3.1681766000110656,,,,,,,,,,,,,3.161058600002434,3.161092700000154,,,,515518,001,2025-10-23_20h12.43.275,run,2024.2.4,None,2025-10-23 20h12.48.629958 +0800,
348,0,348,0,0,0,0,0,0,0,0,348,0,348,0,3.1681766000110656,,,,,,,,,,,,,3.1622074999904726,3.1685243000101764,3.1681766000110656,3.1681766000110656,3.1681766000110656,515518,001,2025-10-23_20h12.43.275,run,2024.2.4,None,2025-10-23 20h12.48.629958 +0800,
349,0,349,0,0,0,0,0,0,0,0,349,0,349,0,3.1797510999895167,,,,,,,,,,,,,3.169224100012798,3.16927020001458,,,,515518,001,2025-10-23_20h12.43.275,run,2024.2.4,None,2025-10-23 20h12.48.629958 +0800,
350,0,350,0,0,0,0,0,0,0,0,350,0,350,0,3.1797510999895167,,,,,,,,,,,,,3.170266000000993,3.1703312000026926,,,,515518,001,2025-10-23_20h12.43.275,run,2024.2.4,None,2025-10-23 20h12.48.629958 +0800,
351,0,351,0,0,0,0,0,0,0,0,351,0,351,0,3.1797510999895167,,,,,,,,,,,,,3.1710886000073515,3.17112260000431,,,,515518,001,2025-10-23_20h12.43.275,run,2024.2.4,None,2025-10-23 20h12.48.629958 +0800,
352,0,352,0,0,0,0,0,0,0,0,352,0,352,0,3.1797510999895167,,,,,,,,,,,,,3.172061899997061,3.1720956999924965,,,,515518,001,2025-10-23_20h12.43.275,run,2024.2.4,None,2025-10-23 20h12.48.629958 +0800,
353,0,353,0,0,0,0,0,0,0,0,353,0,353,0,3.1797510999895167,,,,,,,,,,,,,3.1730084999871906,3.1730425000132527,,,,515518,001,2025-10-23_20h12.43.275,run,2024.2.4,None,2025-10-23 20h12.48.629958 +0800,
354,0,354,0,0,0,0,0,0,0,0,354,0,354,0,3.1797510999895167,,,,,,,,,,,,,3.1741582000104245,3.1799137000052724,3.1797510999895167,3.1797510999895167,3.1797510999895167,515518,001,2025-10-23_20h12.43.275,run,2024.2.4,None,2025-10-23 20h12.48.629958 +0800,
355,0,355,0,0,0,0,0,0,0,0,355,0,355,0,3.1920266000088304,,,,,,,,,,,,,3.181145700014895,3.181181899999501,,,,515518,001,2025-10-23_20h12.43.275,run,2024.2.4,None,2025-10-23 20h12.48.629958 +0800,
356,0,356,0,0,0,0,0,0,0,0,356,0,356,0,3.1920266000088304,,,,,,,,,,,,,3.1819911999918986,3.1820325999869965,,,,515518,001,2025-10-23_20h12.43.275,run,2024.2.4,None,2025-10-23 20h12.48.629958 +0800,
357,0,357,0,0,0,0,0,0,0,0,357,0,357,0,3.1920266000088304,,,,,,,,,,,,,3.1830268999910913,3.1830627000017557,,,,515518,001,2025-10-23_20h12.43.275,run,2024.2.4,None,2025-10-23 20h12.48.629958 +0800,
358,0,358,0,0,0,0,0,0,0,0,358,0,358,0,3.1920266000088304,,,,,,,,,,,,,3.1841262000089046,3.1841582999913953,,,,515518,001,2025-10-23_20h12.43.275,run,2024.2.4,None,2025-10-23 20h12.48.629958 +0800,
359,0,359,0,0,0,0,0,0,0,0,359,0,359,0,3.1920266000088304,,,,,,,,,,,,,3.185025799990399,3.185057599999709,,,,515518,001,2025-10-23_20h12.43.275,run,2024.2.4,None,2025-10-23 20h12.48.629958 +0800,
360,0,360,0,0,0,0,0,0,0,0,360,0,360,0,3.1920266000088304,,,,,,,,,,,,,3.1861008999985643,3.1921862000017427,3.1920266000088304,3.1920266000088304,3.1920266000088304,515518,001,2025-10-23_20h12.43.275,run,2024.2.4,None,2025-10-23 20h12.48.629958 +0800,
361,0,361,0,0,0,0,0,0,0,0,361,0,361,0,3.2088483000115957,,,,,,,,,,,,,3.193282399995951,3.193320499995025,,,,515518,001,2025-10-23_20h12.43.275,run,2024.2.4,None,2025-10-23 20h12.48.629958 +0800,
362,0,362,0,0,0,0,0,0,0,0,362,0,362,0,3.2088483000115957,,,,,,,,,,,,,3.194140100007644,3.194178000005195,,,,515518,001,2025-10-23_20h12.43.275,run,2024.2.4,None,2025-10-23 20h12.48.629958 +0800,
363,0,363,0,0,0,0,0,0,0,0,363,0,363,0,3.2088483000115957,,,,,,,,,,,,,3.195116099988809,3.1951706999971066,,,,515518,001,2025-10-23_20h12.43.275,run,2024.2.4,None,2025-10-23 20h12.48.629958 +0800,
364,0,364,0,0,0,0,0,0,0,0,364,0,364,0,3.2088483000115957,,,,,,,,,,,,,3.1961294999928214,3.196173300006194,,,,515518,001,2025-10-23_20h12.43.275,run,2024.2.4,None,2025-10-23 20h12.48.629958 +0800,
365,0,365,0,0,0,0,0,0,0,0,365,0,365,0,3.2088483000115957,,,,,,,,,,,,,3.1965242000005674,3.1965633000072557,,,,515518,001,2025-10-23_20h12.43.275,run,2024.2.4,None,2025-10-23 20h12.48.629958 +0800,
366,0,366,0,0,0,0,0,0,0,0,366,0,366,0,3.2088483000115957,,,,,,,,,,,,,3.1970197999908123,3.209034300001804,3.2088483000115957,3.2088483000115957,3.2088483000115957,515518,001,2025-10-23_20h12.43.275,run,2024.2.4,None,2025-10-23 20h12.48.629958 +0800,
367,0,367,0,0,0,0,0,0,0,0,367,0,367,0,3.225598999997601,,,,,,,,,,,,,3.2100821000058204,3.2101179999881424,,,,515518,001,2025-10-23_20h12.43.275,run,2024.2.4,None,2025-10-23 20h12.48.629958 +0800,
368,0,368,0,0,0,0,0,0,0,0,368,0,368,0,3.225598999997601,,,,,,,,,,,,,3.211007600009907,3.211042200011434,,,,515518,001,2025-10-23_20h12.43.275,run,2024.2.4,None,2025-10-23 20h12.48.629958 +0800,
369,0,369,0,0,0,0,0,0,0,0,369,0,369,0,3.225598999997601,,,,,,,,,,,,,3.2121005000080913,3.212136799993459,,,,515518,001,2025-10-23_20h12.43.275,run,2024.2.4,None,2025-10-23 20h12.48.629958 +0800,
370,0,370,0,0,0,0,0,0,0,0,370,0,370,0,3.225598999997601,,,,,,,,,,,,,3.2130971000005957,3.2131661000021268,,,,515518,001,2025-10-23_20h12.43.275,run,2024.2.4,None,2025-10-23 20h12.48.629958 +0800,
371,0,371,0,0,0,0,0,0,0,0,371,0,371,0,3.225598999997601,,,,,,,,,,,,,3.2141291000007186,3.2141633999999613,,,,515518,001,2025-10-23_20h12.43.275,run,2024.2.4,None,2025-10-23 20h12.48.629958 +0800,
372,0,372,0,0,0,0,0,0,0,0,372,0,372,0,3.225598999997601,,,,,,,,,,,,,3.2151248999871314,3.2151826999906916,,,,515518,001,2025-10-23_20h12.43.275,run,2024.2.4,None,2025-10-23 20h12.48.629958 +0800,
373,0,373,0,0,0,0,0,0,0,0,373,0,373,0,3.225598999997601,,,,,,,,,,,,,3.2161538999935146,3.216191699990304,,,,515518,001,2025-10-23_20h12.43.275,run,2024.2.4,None,2025-10-23 20h12.48.629958 +0800,
374,0,374,0,0,0,0,0,0,0,0,374,0,374,0,3.225598999997601,,,,,,,,,,,,,3.2169828999903984,3.2170189000025857,,,,515518,001,2025-10-23_20h12.43.275,run,2024.2.4,None,2025-10-23 20h12.48.629958 +0800,
375,0,375,0,0,0,0,0,0,0,0,375,0,375,0,3.225598999997601,,,,,,,,,,,,,3.2180167000042275,3.2180478000082076,,,,515518,001,2025-10-23_20h12.43.275,run,2024.2.4,None,2025-10-23 20h12.48.629958 +0800,
376,0,376,0,0,0,0,0,0,0,0,376,0,376,0,3.225598999997601,,,,,,,,,,,,,3.2190232000139076,3.219055699999444,,,,515518,001,2025-10-23_20h12.43.275,run,2024.2.4,None,2025-10-23 20h12.48.629958 +0800,
377,0,377,0,0,0,0,0,0,0,0,377,0,377,0,3.225598999997601,,,,,,,,,,,,,3.220095399999991,3.2258096000005025,3.225598999997601,3.225598999997601,3.225598999997601,515518,001,2025-10-23_20h12.43.275,run,2024.2.4,None,2025-10-23 20h12.48.629958 +0800,
378,0,378,0,0,0,0,0,0,0,0,378,0,378,0,3.2415959000063594,,,,,,,,,,,,,3.2275593999947887,3.2276229000126477,,,,515518,001,2025-10-23_20h12.43.275,run,2024.2.4,None,2025-10-23 20h12.48.629958 +0800,
379,0,379,0,0,0,0,0,0,0,0,379,0,379,0,3.2415959000063594,,,,,,,,,,,,,3.2290234999964014,3.22905960000935,,,,515518,001,2025-10-23_20h12.43.275,run,2024.2.4,None,2025-10-23 20h12.48.629958 +0800,
380,0,380,0,0,0,0,0,0,0,0,380,0,380,0,3.2415959000063594,,,,,,,,,,,,,3.230023699987214,3.2300573000102304,,,,515518,001,2025-10-23_20h12.43.275,run,2024.2.4,None,2025-10-23 20h12.48.629958 +0800,
381,0,381,0,0,0,0,0,0,0,0,381,0,381,0,3.2415959000063594,,,,,,,,,,,,,3.2310166000097524,3.2310493999975733,,,,515518,001,2025-10-23_20h12.43.275,run,2024.2.4,None,2025-10-23 20h12.48.629958 +0800,
382,0,382,0,0,0,0,0,0,0,0,382,0,382,0,3.2415959000063594,,,,,,,,,,,,,3.2321028000151273,3.232156899990514,,,,515518,001,2025-10-23_20h12.43.275,run,2024.2.4,None,2025-10-23 20h12.48.629958 +0800,
383,0,383,0,0,0,0,0,0,0,0,383,0,383,0,3.2415959000063594,,,,,,,,,,,,,3.233050100010587,3.233084100007545,,,,515518,001,2025-10-23_20h12.43.275,run,2024.2.4,None,2025-10-23 20h12.48.629958 +0800,
384,0,384,0,0,0,0,0,0,0,0,384,0,384,0,3.2415959000063594,,,,,,,,,,,,,3.234096900006989,3.241895299986936,3.2415959000063594,3.2415959000063594,3.2415959000063594,515518,001,2025-10-23_20h12.43.275,run,2024.2.4,None,2025-10-23 20h12.48.629958 +0800,
385,0,385,0,0,0,0,0,0,0,0,385,0,385,0,3.255469900002936,,,,,,,,,,,,,3.243185800005449,3.243227200000547,,,,515518,001,2025-10-23_20h12.43.275,run,2024.2.4,None,2025-10-23 20h12.48.629958 +0800,
386,0,386,0,0,0,0,0,0,0,0,386,0,386,0,3.255469900002936,,,,,,,,,,,,,3.244114900007844,3.244153300009202,,,,515518,001,2025-10-23_20h12.43.275,run,2024.2.4,None,2025-10-23 20h12.48.629958 +0800,
387,0,387,0,0,0,0,0,0,0,0,387,0,387,0,3.255469900002936,,,,,,,,,,,,,3.245035400002962,3.2450714000151493,,,,515518,001,2025-10-23_20h12.43.275,run,2024.2.4,None,2025-10-23 20h12.48.629958 +0800,
388,0,388,0,0,0,0,0,0,0,0,388,0,388,0,3.255469900002936,,,,,,,,,,,,,3.2461280999996234,3.246162399998866,,,,515518,001,2025-10-23_20h12.43.275,run,2024.2.4,None,2025-10-23 20h12.48.629958 +0800,
389,0,389,0,0,0,0,0,0,0,0,389,0,389,0,3.255469900002936,,,,,,,,,,,,,3.2472003000148106,3.2472312999889255,,,,515518,001,2025-10-23_20h12.43.275,run,2024.2.4,None,2025-10-23 20h12.48.629958 +0800,
390,0,390,0,0,0,0,0,0,0,0,390,0,390,0,3.255469900002936,,,,,,,,,,,,,3.2480143000138924,3.248052999988431,,,,515518,001,2025-10-23_20h12.43.275,run,2024.2.4,None,2025-10-23 20h12.48.629958 +0800,
391,0,391,0,0,0,0,0,0,0,0,391,0,391,0,3.255469900002936,,,,,,,,,,,,,3.248971699998947,3.2490040000120644,,,,515518,001,2025-10-23_20h12.43.275,run,2024.2.4,None,2025-10-23 20h12.48.629958 +0800,
392,0,392,0,0,0,0,0,0,0,0,392,0,392,0,3.255469900002936,,,,,,,,,,,,,3.2499278000032064,3.255662999988999,3.255469900002936,3.255469900002936,3.255469900002936,515518,001,2025-10-23_20h12.43.275,run,2024.2.4,None,2025-10-23 20h12.48.629958 +0800,
393,0,393,0,0,0,0,0,0,0,0,393,0,393,0,3.267187899997225,,,,,,,,,,,,,3.257066999998642,3.2571047999954317,,,,515518,001,2025-10-23_20h12.43.275,run,2024.2.4,None,2025-10-23 20h12.48.629958 +0800,
394,0,394,0,0,0,0,0,0,0,0,394,0,394,0,3.267187899997225,,,,,,,,,,,,,3.2580619000073057,3.258095199998934,,,,515518,001,2025-10-23_20h12.43.275,run,2024.2.4,None,2025-10-23 20h12.48.629958 +0800,
395,0,395,0,0,0,0,0,0,0,0,395,0,395,0,3.267187899997225,,,,,,,,,,,,,3.259000799997011,3.259034199989401,,,,515518,001,2025-10-23_20h12.43.275,run,2024.2.4,None,2025-10-23 20h12.48.629958 +0800,
396,0,396,0,0,0,0,0,0,0,0,396,0,396,0,3.267187899997225,,,,,,,,,,,,,3.259988700010581,3.2600197000137996,,,,515518,001,2025-10-23_20h12.43.275,run,2024.2.4,None,2025-10-23 20h12.48.629958 +0800,
397,0,397,0,0,0,0,0,0,0,0,397,0,397,0,3.267187899997225,,,,,,,,,,,,,3.2609185999899637,3.2609470000024885,,,,515518,001,2025-10-23_20h12.43.275,run,2024.2.4,None,2025-10-23 20h12.48.629958 +0800,
398,0,398,0,0,0,0,0,0,0,0,398,0,398,0,3.267187899997225,,,,,,,,,,,,,3.262099000014132,3.267343100014841,3.267187899997225,3.267187899997225,3.267187899997225,515518,001,2025-10-23_20h12.43.275,run,2024.2.4,None,2025-10-23 20h12.48.629958 +0800,
399,0,399,0,0,0,0,0,0,0,0,399,0,399,0,3.2772311000153422,,,,,,,,,,,,,3.2681016999995336,3.2681332000065595,,,,515518,001,2025-10-23_20h12.43.275,run,2024.2.4,None,2025-10-23 20h12.48.629958 +0800,
400,0,400,0,0,0,0,0,0,0,0,400,0,400,0,3.2772311000153422,,,,,,,,,,,,,3.269233600003645,3.2692961000138894,,,,515518,001,2025-10-23_20h12.43.275,run,2024.2.4,None,2025-10-23 20h12.48.629958 +0800,
401,0,401,0,0,0,0,0,0,0,0,401,0,401,0,3.2772311000153422,,,,,,,,,,,,,3.270351200015284,3.2704077000089455,,,,515518,001,2025-10-23_20h12.43.275,run,2024.2.4,None,2025-10-23 20h12.48.629958 +0800,
402,0,402,0,0,0,0,0,0,0,0,402,0,402,0,3.2772311000153422,,,,,,,,,,,,,3.2710396999900695,3.2710786999959964,,,,515518,001,2025-10-23_20h12.43.275,run,2024.2.4,None,2025-10-23 20h12.48.629958 +0800,
403,0,403,0,0,0,0,0,0,0,0,403,0,403,0,3.2772311000153422,,,,,,,,,,,,,3.2721306000021286,3.2774578999960795,3.2772311000153422,3.2772311000153422,3.2772311000153422,515518,001,2025-10-23_20h12.43.275,run,2024.2.4,None,2025-10-23 20h12.48.629958 +0800,
404,0,404,0,0,0,0,0,0,0,0,404,0,404,0,3.287833000009414,,,,,,,,,,,,,3.2781692999997176,3.278229099989403,,,,515518,001,2025-10-23_20h12.43.275,run,2024.2.4,None,2025-10-23 20h12.48.629958 +0800,
405,0,405,0,0,0,0,0,0,0,0,405,0,405,0,3.287833000009414,,,,,,,,,,,,,3.279046699986793,3.2790759000054095,,,,515518,001,2025-10-23_20h12.43.275,run,2024.2.4,None,2025-10-23 20h12.48.629958 +0800,
406,0,406,0,0,0,0,0,0,0,0,406,0,406,0,3.287833000009414,,,,,,,,,,,,,3.280101200012723,3.280133599997498,,,,515518,001,2025-10-23_20h12.43.275,run,2024.2.4,None,2025-10-23 20h12.48.629958 +0800,
407,0,407,0,0,0,0,0,0,0,0,407,0,407,0,3.287833000009414,,,,,,,,,,,,,3.2809898999985307,3.2810164999973495,,,,515518,001,2025-10-23_20h12.43.275,run,2024.2.4,None,2025-10-23 20h12.48.629958 +0800,
408,0,408,0,0,0,0,0,0,0,0,408,0,408,0,3.287833000009414,,,,,,,,,,,,,3.282167900004424,3.287971599987941,3.287833000009414,3.287833000009414,3.287833000009414,515518,001,2025-10-23_20h12.43.275,run,2024.2.4,None,2025-10-23 20h12.48.629958 +0800,
409,0,409,0,0,0,0,0,0,0,0,409,0,409,0,3.3012118999904487,,,,,,,,,,,,,3.289082800009055,3.2891140000137966,,,,515518,001,2025-10-23_20h12.43.275,run,2024.2.4,None,2025-10-23 20h12.48.629958 +0800,
410,0,410,0,0,0,0,0,0,0,0,410,0,410,0,3.3012118999904487,,,,,,,,,,,,,3.290290700009791,3.2903986999881454,,,,515518,001,2025-10-23_20h12.43.275,run,2024.2.4,None,2025-10-23 20h12.48.629958 +0800,
411,0,411,0,0,0,0,0,0,0,0,411,0,411,0,3.3012118999904487,,,,,,,,,,,,,3.2910698000050616,3.2911034999997355,,,,515518,001,2025-10-23_20h12.43.275,run,2024.2.4,None,2025-10-23 20h12.48.629958 +0800,
412,0,412,0,0,0,0,0,0,0,0,412,0,412,0,3.3012118999904487,,,,,,,,,,,,,3.2922559000144247,3.29228900000453,,,,515518,001,2025-10-23_20h12.43.275,run,2024.2.4,None,2025-10-23 20h12.48.629958 +0800,
413,0,413,0,0,0,0,0,0,0,0,413,0,413,0,3.3012118999904487,,,,,,,,,,,,,3.293004600011045,3.293034300004365,,,,515518,001,2025-10-23_20h12.43.275,run,2024.2.4,None,2025-10-23 20h12.48.629958 +0800,
414,0,414,0,0,0,0,0,0,0,0,414,0,414,0,3.3012118999904487,,,,,,,,,,,,,3.2941932000103407,3.301361399993766,3.3012118999904487,3.3012118999904487,3.3012118999904487,515518,001,2025-10-23_20h12.43.275,run,2024.2.4,None,2025-10-23 20h12.48.629958 +0800,
415,0,415,0,0,0,0,0,0,0,0,415,0,415,0,3.31277940000291,,,,,,,,,,,,,3.302148099988699,3.3021830999932718,,,,515518,001,2025-10-23_20h12.43.275,run,2024.2.4,None,2025-10-23 20h12.48.629958 +0800,
416,0,416,0,0,0,0,0,0,0,0,416,0,416,0,3.31277940000291,,,,,,,,,,,,,3.3034090000146534,3.303448799997568,,,,515518,001,2025-10-23_20h12.43.275,run,2024.2.4,None,2025-10-23 20h12.48.629958 +0800,
417,0,417,0,0,0,0,0,0,0,0,417,0,417,0,3.31277940000291,,,,,,,,,,,,,3.3040824999916367,3.304113599995617,,,,515518,001,2025-10-23_20h12.43.275,run,2024.2.4,None,2025-10-23 20h12.48.629958 +0800,
418,0,418,0,0,0,0,0,0,0,0,418,0,418,0,3.31277940000291,,,,,,,,,,,,,3.305196100001922,3.30522869998822,,,,515518,001,2025-10-23_20h12.43.275,run,2024.2.4,None,2025-10-23 20h12.48.629958 +0800,
419,0,419,0,0,0,0,0,0,0,0,419,0,419,0,3.31277940000291,,,,,,,,,,,,,3.305717999988701,3.3057490999926813,,,,515518,001,2025-10-23_20h12.43.275,run,2024.2.4,None,2025-10-23 20h12.48.629958 +0800,
420,0,420,0,0,0,0,0,0,0,0,420,0,420,0,3.31277940000291,,,,,,,,,,,,,3.3071709999931045,3.3072238999884576,,,,515518,001,2025-10-23_20h12.43.275,run,2024.2.4,None,2025-10-23 20h12.48.629958 +0800,
421,0,421,0,0,0,0,0,0,0,0,421,0,421,0,3.31277940000291,,,,,,,,,,,,,3.308449500007555,3.3084961000131443,,,,515518,001,2025-10-23_20h12.43.275,run,2024.2.4,None,2025-10-23 20h12.48.629958 +0800,
422,0,422,0,0,0,0,0,0,0,0,422,0,422,0,3.31277940000291,,,,,,,,,,,,,3.3090197000128683,3.3129702000005636,3.31277940000291,3.31277940000291,3.31277940000291,515518,001,2025-10-23_20h12.43.275,run,2024.2.4,None,2025-10-23 20h12.48.629958 +0800,
423,0,423,0,0,0,0,0,0,0,0,423,0,423,0,3.3216014000063296,,,,,,,,,,,,,3.314156300009927,3.3141956999897957,,,,515518,001,2025-10-23_20h12.43.275,run,2024.2.4,None,2025-10-23 20h12.48.629958 +0800,
424,0,424,0,0,0,0,0,0,0,0,424,0,424,0,3.3216014000063296,,,,,,,,,,,,,3.3150040000036824,3.315041599998949,,,,515518,001,2025-10-23_20h12.43.275,run,2024.2.4,None,2025-10-23 20h12.48.629958 +0800,
425,0,425,0,0,0,0,0,0,0,0,425,0,425,0,3.3216014000063296,,,,,,,,,,,,,3.3163384000072256,3.316390899999533,,,,515518,001,2025-10-23_20h12.43.275,run,2024.2.4,None,2025-10-23 20h12.48.629958 +0800,
426,0,426,0,0,0,0,0,0,0,0,426,0,426,0,3.3216014000063296,,,,,,,,,,,,,3.3170539000129793,3.3219773999881,3.3216014000063296,3.3216014000063296,3.3216014000063296,515518,001,2025-10-23_20h12.43.275,run,2024.2.4,None,2025-10-23 20h12.48.629958 +0800,
427,0,427,0,0,0,0,0,0,0,0,427,0,427,0,3.329666300007375,,,,,,,,,,,,,3.3231507999880705,3.323192400013795,,,,515518,001,2025-10-23_20h12.43.275,run,2024.2.4,None,2025-10-23 20h12.48.629958 +0800,
428,0,428,0,0,0,0,0,0,0,0,428,0,428,0,3.329666300007375,,,,,,,,,,,,,3.3242836999997962,3.324327100010123,,,,515518,001,2025-10-23_20h12.43.275,run,2024.2.4,None,2025-10-23 20h12.48.629958 +0800,
429,0,429,0,0,0,0,0,0,0,0,429,0,429,0,3.329666300007375,,,,,,,,,,,,,3.32493770000292,3.3249673999962397,,,,515518,001,2025-10-23_20h12.43.275,run,2024.2.4,None,2025-10-23 20h12.48.629958 +0800,
430,0,430,0,0,0,0,0,0,0,0,430,0,430,0,3.329666300007375,,,,,,,,,,,,,3.3259558000136167,3.3298521999968216,3.329666300007375,3.329666300007375,3.329666300007375,515518,001,2025-10-23_20h12.43.275,run,2024.2.4,None,2025-10-23 20h12.48.629958 +0800,
431,0,431,0,0,0,0,0,0,0,0,431,0,431,0,3.3420195000071544,,,,,,,,,,,,,3.331157800013898,3.331199200008996,,,,515518,001,2025-10-23_20h12.43.275,run,2024.2.4,None,2025-10-23 20h12.48.629958 +0800,
432,0,432,0,0,0,0,0,0,0,0,432,0,432,0,3.3420195000071544,,,,,,,,,,,,,3.3323105000017677,3.3323684000060894,,,,515518,001,2025-10-23_20h12.43.275,run,2024.2.4,None,2025-10-23 20h12.48.629958 +0800,
433,0,433,0,0,0,0,0,0,0,0,433,0,433,0,3.3420195000071544,,,,,,,,,,,,,3.332993299991358,3.333029700006591,,,,515518,001,2025-10-23_20h12.43.275,run,2024.2.4,None,2025-10-23 20h12.48.629958 +0800,
434,0,434,0,0,0,0,0,0,0,0,434,0,434,0,3.3420195000071544,,,,,,,,,,,,,3.3340580000076443,3.342170299991267,3.3420195000071544,3.3420195000071544,3.3420195000071544,515518,001,2025-10-23_20h12.43.275,run,2024.2.4,None,2025-10-23 20h12.48.629958 +0800,
435,0,435,0,0,0,0,0,0,0,0,435,0,435,0,3.3585652000037953,,,,,,,,,,,,,3.3430380999925546,3.343072299991036,,,,515518,001,2025-10-23_20h12.43.275,run,2024.2.4,None,2025-10-23 20h12.48.629958 +0800,
436,0,436,0,0,0,0,0,0,0,0,436,0,436,0,3.3585652000037953,,,,,,,,,,,,,3.344021900004009,3.3440597000007983,,,,515518,001,2025-10-23_20h12.43.275,run,2024.2.4,None,2025-10-23 20h12.48.629958 +0800,
437,0,437,0,0,0,0,0,0,0,0,437,0,437,0,3.3585652000037953,,,,,,,,,,,,,3.345156199997291,3.3451906999980565,,,,515518,001,2025-10-23_20h12.43.275,run,2024.2.4,None,2025-10-23 20h12.48.629958 +0800,
438,0,438,0,0,0,0,0,0,0,0,438,0,438,0,3.3585652000037953,,,,,,,,,,,,,3.3459572000137996,3.3459886999917217,,,,515518,001,2025-10-23_20h12.43.275,run,2024.2.4,None,2025-10-23 20h12.48.629958 +0800,
439,0,439,0,0,0,0,0,0,0,0,439,0,439,0,3.3585652000037953,,,,,,,,,,,,,3.3469380000024103,3.3469694000086747,,,,515518,001,2025-10-23_20h12.43.275,run,2024.2.4,None,2025-10-23 20h12.48.629958 +0800,
440,0,440,0,0,0,0,0,0,0,0,440,0,440,0,3.3585652000037953,,,,,,,,,,,,,3.3479399000061676,3.3479684999911115,,,,515518,001,2025-10-23_20h12.43.275,run,2024.2.4,None,2025-10-23 20h12.48.629958 +0800,
441,0,441,0,0,0,0,0,0,0,0,441,0,441,0,3.3585652000037953,,,,,,,,,,,,,3.3491351999982726,3.3491727999935392,,,,515518,001,2025-10-23_20h12.43.275,run,2024.2.4,None,2025-10-23 20h12.48.629958 +0800,
442,0,442,0,0,0,0,0,0,0,0,442,0,442,0,3.3585652000037953,,,,,,,,,,,,,3.3499731000047177,3.3587659999902826,3.3585652000037953,3.3585652000037953,3.3585652000037953,515518,001,2025-10-23_20h12.43.275,run,2024.2.4,None,2025-10-23 20h12.48.629958 +0800,
443,0,443,0,0,0,0,0,0,0,0,443,0,443,0,3.3756853000086267,,,,,,,,,,,,,3.360012299992377,3.3600482000038028,,,,515518,001,2025-10-23_20h12.43.275,run,2024.2.4,None,2025-10-23 20h12.48.629958 +0800,
444,0,444,0,0,0,0,0,0,0,0,444,0,444,0,3.3756853000086267,,,,,,,,,,,,,3.361561800003983,3.361633199994685,,,,515518,001,2025-10-23_20h12.43.275,run,2024.2.4,None,2025-10-23 20h12.48.629958 +0800,
445,0,445,0,0,0,0,0,0,0,0,445,0,445,0,3.3756853000086267,,,,,,,,,,,,,3.3633172000118066,3.363351200008765,,,,515518,001,2025-10-23_20h12.43.275,run,2024.2.4,None,2025-10-23 20h12.48.629958 +0800,
446,0,446,0,0,0,0,0,0,0,0,446,0,446,0,3.3756853000086267,,,,,,,,,,,,,3.3641341000038665,3.364166200015461,,,,515518,001,2025-10-23_20h12.43.275,run,2024.2.4,None,2025-10-23 20h12.48.629958 +0800,
447,0,447,0,0,0,0,0,0,0,0,447,0,447,0,3.3756853000086267,,,,,,,,,,,,,3.3649697999935597,3.3650000999914482,,,,515518,001,2025-10-23_20h12.43.275,run,2024.2.4,None,2025-10-23 20h12.48.629958 +0800,
448,0,448,0,0,0,0,0,0,0,0,448,0,448,0,3.3756853000086267,,,,,,,,,,,,,3.3664488999929745,3.366484700003639,,,,515518,001,2025-10-23_20h12.43.275,run,2024.2.4,None,2025-10-23 20h12.48.629958 +0800,
449,0,449,0,0,0,0,0,0,0,0,449,0,449,0,3.3756853000086267,,,,,,,,,,,,,3.367115700006252,3.367147400014801,,,,515518,001,2025-10-23_20h12.43.275,run,2024.2.4,None,2025-10-23 20h12.48.629958 +0800,
450,0,450,0,0,0,0,0,0,0,0,450,0,450,0,3.3756853000086267,,,,,,,,,,,,,3.368328999989899,3.3683660000097007,,,,515518,001,2025-10-23_20h12.43.275,run,2024.2.4,None,2025-10-23 20h12.48.629958 +0800,
451,0,451,0,0,0,0,0,0,0,0,451,0,451,0,3.3756853000086267,,,,,,,,,,,,,3.369406000012532,3.369456699991133,,,,515518,001,2025-10-23_20h12.43.275,run,2024.2.4,None,2025-10-23 20h12.48.629958 +0800,
452,0,452,0,0,0,0,0,0,0,0,452,0,452,0,3.3756853000086267,,,,,,,,,,,,,3.3703262000053655,3.375865400012117,3.3756853000086267,3.3756853000086267,3.3756853000086267,515518,001,2025-10-23_20h12.43.275,run,2024.2.4,None,2025-10-23 20h12.48.629958 +0800,
453,0,453,0,0,0,0,0,0,0,0,453,0,453,0,3.387786400009645,,,,,,,,,,,,,3.3771090999944136,3.37714669998968,,,,515518,001,2025-10-23_20h12.43.275,run,2024.2.4,None,2025-10-23 20h12.48.629958 +0800,
454,0,454,0,0,0,0,0,0,0,0,454,0,454,0,3.387786400009645,,,,,,,,,,,,,3.3785872000153176,3.3786429000028875,,,,515518,001,2025-10-23_20h12.43.275,run,2024.2.4,None,2025-10-23 20h12.48.629958 +0800,
455,0,455,0,0,0,0,0,0,0,0,455,0,455,0,3.387786400009645,,,,,,,,,,,,,3.3801571000076365,3.3801919000106864,,,,515518,001,2025-10-23_20h12.43.275,run,2024.2.4,None,2025-10-23 20h12.48.629958 +0800,
456,0,456,0,0,0,0,0,0,0,0,456,0,456,0,3.387786400009645,,,,,,,,,,,,,3.381201799988048,3.3812306000036187,,,,515518,001,2025-10-23_20h12.43.275,run,2024.2.4,None,2025-10-23 20h12.48.629958 +0800,
457,0,457,0,0,0,0,0,0,0,0,457,0,457,0,3.387786400009645,,,,,,,,,,,,,3.382100199989509,3.382131799997296,,,,515518,001,2025-10-23_20h12.43.275,run,2024.2.4,None,2025-10-23 20h12.48.629958 +0800,
458,0,458,0,0,0,0,0,0,0,0,458,0,458,0,3.387786400009645,,,,,,,,,,,,,3.3831353000132367,3.3831710999947973,,,,515518,001,2025-10-23_20h12.43.275,run,2024.2.4,None,2025-10-23 20h12.48.629958 +0800,
459,0,459,0,0,0,0,0,0,0,0,459,0,459,0,3.387786400009645,,,,,,,,,,,,,3.3839769999904092,3.387995299999602,3.387786400009645,3.387786400009645,3.387786400009645,515518,001,2025-10-23_20h12.43.275,run,2024.2.4,None,2025-10-23 20h12.48.629958 +0800,
460,0,460,0,0,0,0,0,0,0,0,460,0,460,0,3.4017321999999695,,,,,,,,,,,,,3.3891550000116695,3.3891885000048205,,,,515518,001,2025-10-23_20h12.43.275,run,2024.2.4,None,2025-10-23 20h12.48.629958 +0800,
461,0,461,0,0,0,0,0,0,0,0,461,0,461,0,3.4017321999999695,,,,,,,,,,,,,3.390391799999634,3.390460399998119,,,,515518,001,2025-10-23_20h12.43.275,run,2024.2.4,None,2025-10-23 20h12.48.629958 +0800,
462,0,462,0,0,0,0,0,0,0,0,462,0,462,0,3.4017321999999695,,,,,,,,,,,,,3.391104100010125,3.391138300008606,,,,515518,001,2025-10-23_20h12.43.275,run,2024.2.4,None,2025-10-23 20h12.48.629958 +0800,
463,0,463,0,0,0,0,0,0,0,0,463,0,463,0,3.4017321999999695,,,,,,,,,,,,,3.392077700002119,3.4018894000037108,3.4017321999999695,3.4017321999999695,3.4017321999999695,515518,001,2025-10-23_20h12.43.275,run,2024.2.4,None,2025-10-23 20h12.48.629958 +0800,
464,0,464,0,0,0,0,0,0,0,0,464,0,464,0,3.4213074000144843,,,,,,,,,,,,,3.403592699993169,3.403669599996647,,,,515518,001,2025-10-23_20h12.43.275,run,2024.2.4,None,2025-10-23 20h12.48.629958 +0800,
465,0,465,0,0,0,0,0,0,0,0,465,0,465,0,3.4213074000144843,,,,,,,,,,,,,3.4052035000058822,3.4052375000028405,,,,515518,001,2025-10-23_20h12.43.275,run,2024.2.4,None,2025-10-23 20h12.48.629958 +0800,
466,0,466,0,0,0,0,0,0,0,0,466,0,466,0,3.4213074000144843,,,,,,,,,,,,,3.406071700010216,3.4061041999957524,,,,515518,001,2025-10-23_20h12.43.275,run,2024.2.4,None,2025-10-23 20h12.48.629958 +0800,
467,0,467,0,0,0,0,0,0,0,0,467,0,467,0,3.4213074000144843,,,,,,,,,,,,,3.4071579999872483,3.40721149998717,,,,515518,001,2025-10-23_20h12.43.275,run,2024.2.4,None,2025-10-23 20h12.48.629958 +0800,
468,0,468,0,0,0,0,0,0,0,0,468,0,468,0,3.4213074000144843,,,,,,,,,,,,,3.4080889000033494,3.4081250999879558,,,,515518,001,2025-10-23_20h12.43.275,run,2024.2.4,None,2025-10-23 20h12.48.629958 +0800,
469,0,469,0,0,0,0,0,0,0,0,469,0,469,0,3.4213074000144843,,,,,,,,,,,,,3.4090943000046536,3.409131399996113,,,,515518,001,2025-10-23_20h12.43.275,run,2024.2.4,None,2025-10-23 20h12.48.629958 +0800,
470,0,470,0,0,0,0,0,0,0,0,470,0,470,0,3.4213074000144843,,,,,,,,,,,,,3.410035200009588,3.4100696000095922,,,,515518,001,2025-10-23_20h12.43.275,run,2024.2.4,None,2025-10-23 20h12.48.629958 +0800,
471,0,471,0,0,0,0,0,0,0,0,471,0,471,0,3.4213074000144843,,,,,,,,,,,,,3.4112811000086367,3.411341099999845,,,,515518,001,2025-10-23_20h12.43.275,run,2024.2.4,None,2025-10-23 20h12.48.629958 +0800,
472,0,472,0,0,0,0,0,0,0,0,472,0,472,0,3.4213074000144843,,,,,,,,,,,,,3.411752699990757,3.4117869999899995,,,,515518,001,2025-10-23_20h12.43.275,run,2024.2.4,None,2025-10-23 20h12.48.629958 +0800,
473,0,473,0,0,0,0,0,0,0,0,473,0,473,0,3.4213074000144843,,,,,,,,,,,,,3.4130959000031,3.413129399996251,,,,515518,001,2025-10-23_20h12.43.275,run,2024.2.4,None,2025-10-23 20h12.48.629958 +0800,
474,0,474,0,0,0,0,0,0,0,0,474,0,474,0,3.4213074000144843,,,,,,,,,,,,,3.414016199996695,3.4215153999975882,3.4213074000144843,3.4213074000144843,3.4213074000144843,515518,001,2025-10-23_20h12.43.275,run,2024.2.4,None,2025-10-23 20h12.48.629958 +0800,
475,0,475,0,0,0,0,0,0,0,0,475,0,475,0,3.4336530000146013,,,,,,,,,,,,,3.4221688999969047,3.4222134000156075,,,,515518,001,2025-10-23_20h12.43.275,run,2024.2.4,None,2025-10-23 20h12.48.629958 +0800,
476,0,476,0,0,0,0,0,0,0,0,476,0,476,0,3.4336530000146013,,,,,,,,,,,,,3.4231706999999005,3.423210300010396,,,,515518,001,2025-10-23_20h12.43.275,run,2024.2.4,None,2025-10-23 20h12.48.629958 +0800,
477,0,477,0,0,0,0,0,0,0,0,477,0,477,0,3.4336530000146013,,,,,,,,,,,,,3.42421940001077,3.424274699995294,,,,515518,001,2025-10-23_20h12.43.275,run,2024.2.4,None,2025-10-23 20h12.48.629958 +0800,
478,0,478,0,0,0,0,0,0,0,0,478,0,478,0,3.4336530000146013,,,,,,,,,,,,,3.425074600003427,3.4251067000150215,,,,515518,001,2025-10-23_20h12.43.275,run,2024.2.4,None,2025-10-23 20h12.48.629958 +0800,
479,0,479,0,0,0,0,0,0,0,0,479,0,479,0,3.4336530000146013,,,,,,,,,,,,,3.4261273000156507,3.4261610000103246,,,,515518,001,2025-10-23_20h12.43.275,run,2024.2.4,None,2025-10-23 20h12.48.629958 +0800,
480,0,480,0,0,0,0,0,0,0,0,480,0,480,0,3.4336530000146013,,,,,,,,,,,,,3.4270498999976553,3.42708270001458,,,,515518,001,2025-10-23_20h12.43.275,run,2024.2.4,None,2025-10-23 20h12.48.629958 +0800,
481,0,481,0,0,0,0,0,0,0,0,481,0,481,0,3.4336530000146013,,,,,,,,,,,,,3.4279900999972597,3.433878999989247,3.4336530000146013,3.4336530000146013,3.4336530000146013,515518,001,2025-10-23_20h12.43.275,run,2024.2.4,None,2025-10-23 20h12.48.629958 +0800,
482,0,482,0,0,0,0,0,0,0,0,482,0,482,0,3.44655480000074,,,,,,,,,,,,,3.4351584000105504,3.435193400015123,,,,515518,001,2025-10-23_20h12.43.275,run,2024.2.4,None,2025-10-23 20h12.48.629958 +0800,
483,0,483,0,0,0,0,0,0,0,0,483,0,483,0,3.44655480000074,,,,,,,,,,,,,3.4360812999948394,3.436116299999412,,,,515518,001,2025-10-23_20h12.43.275,run,2024.2.4,None,2025-10-23 20h12.48.629958 +0800,
484,0,484,0,0,0,0,0,0,0,0,484,0,484,0,3.44655480000074,,,,,,,,,,,,,3.4370286999910604,3.437061900011031,,,,515518,001,2025-10-23_20h12.43.275,run,2024.2.4,None,2025-10-23 20h12.48.629958 +0800,
485,0,485,0,0,0,0,0,0,0,0,485,0,485,0,3.44655480000074,,,,,,,,,,,,,3.4380578999989666,3.4380905000143684,,,,515518,001,2025-10-23_20h12.43.275,run,2024.2.4,None,2025-10-23 20h12.48.629958 +0800,
486,0,486,0,0,0,0,0,0,0,0,486,0,486,0,3.44655480000074,,,,,,,,,,,,,3.438933800003724,3.438966099987738,,,,515518,001,2025-10-23_20h12.43.275,run,2024.2.4,None,2025-10-23 20h12.48.629958 +0800,
487,0,487,0,0,0,0,0,0,0,0,487,0,487,0,3.44655480000074,,,,,,,,,,,,,3.4400470000109635,3.4467235000047367,3.44655480000074,3.44655480000074,3.44655480000074,515518,001,2025-10-23_20h12.43.275,run,2024.2.4,None,2025-10-23 20h12.48.629958 +0800,
488,0,488,0,0,0,0,0,0,0,0,488,0,488,0,3.4585919000091963,,,,,,,,,,,,,3.4481816999905277,3.4482237999909557,,,,515518,001,2025-10-23_20h12.43.275,run,2024.2.4,None,2025-10-23 20h12.48.629958 +0800,
489,0,489,0,0,0,0,0,0,0,0,489,0,489,0,3.4585919000091963,,,,,,,,,,,,,3.449139500007732,3.449171499989461,,,,515518,001,2025-10-23_20h12.43.275,run,2024.2.4,None,2025-10-23 20h12.48.629958 +0800,
490,0,490,0,0,0,0,0,0,0,0,490,0,490,0,3.4585919000091963,,,,,,,,,,,,,3.4501779999991413,3.450212099996861,,,,515518,001,2025-10-23_20h12.43.275,run,2024.2.4,None,2025-10-23 20h12.48.629958 +0800,
491,0,491,0,0,0,0,0,0,0,0,491,0,491,0,3.4585919000091963,,,,,,,,,,,,,3.4509298999910243,3.4509701000060886,,,,515518,001,2025-10-23_20h12.43.275,run,2024.2.4,None,2025-10-23 20h12.48.629958 +0800,
492,0,492,0,0,0,0,0,0,0,0,492,0,492,0,3.4585919000091963,,,,,,,,,,,,,3.452005300001474,3.4520339999871794,,,,515518,001,2025-10-23_20h12.43.275,run,2024.2.4,None,2025-10-23 20h12.48.629958 +0800,
