thisN,thisTrialN,thisRepN,trials_2.thisRepN,trials_2.thisTrialN,trials_2.thisN,trials_2.thisIndex,trials.thisRepN,trials.thisTrialN,trials.thisN,trials.thisIndex,trials_3.thisRepN,trials_3.thisTrialN,trials_3.thisN,trials_3.thisIndex,thisRow.t,notes,Init.started,text.started,key_resp.started,Init.stopped,key_resp.keys,key_resp.rt,key_resp.duration,prep.started,text_2.started,text_2.stopped,prep.stopped,run.started,run.stopped,Eyes.started,prog.started,polygon.started,participant,session,date,expName,psychopyVersion,frameRate,expStart,
,,,,,,,,,,,,,,,,,0.009120400005485862,0.01677789998939261,0.01677789998939261,1.5824549999961164,space,1.5556647999910638,None,,,,,,,,,,557080,001,2025-10-23_17h01.00.187,run,2024.2.4,None,2025-10-23 17h01.06.624979 +0800,
0,0,0,0,0,0,0,0,0,0,0,0,0,0,0,3.0045433999912348,,,,,,,,,1.5836553999979515,1.592034600005718,3.0045433999912348,2.9866692000068724,2.9915169999876525,2.99155370000517,,,,557080,001,2025-10-23_17h01.00.187,run,2024.2.4,None,2025-10-23 17h01.06.624979 +0800,
1,0,1,0,0,0,0,0,0,0,0,1,0,1,0,3.0045433999912348,,,,,,,,,,,,,2.9930255000072066,2.993060599983437,,,,557080,001,2025-10-23_17h01.00.187,run,2024.2.4,None,2025-10-23 17h01.06.624979 +0800,
2,0,2,0,0,0,0,0,0,0,0,2,0,2,0,3.0045433999912348,,,,,,,,,,,,,2.994180499983486,2.994215799990343,,,,557080,001,2025-10-23_17h01.00.187,run,2024.2.4,None,2025-10-23 17h01.06.624979 +0800,
3,0,3,0,0,0,0,0,0,0,0,3,0,3,0,3.0045433999912348,,,,,,,,,,,,,2.9950154999969527,2.9950451999902725,,,,557080,001,2025-10-23_17h01.00.187,run,2024.2.4,None,2025-10-23 17h01.06.624979 +0800,
4,0,4,0,0,0,0,0,0,0,0,4,0,4,0,3.0045433999912348,,,,,,,,,,,,,2.9961255000089295,3.0046718000085093,3.0045433999912348,3.0045433999912348,3.0045433999912348,557080,001,2025-10-23_17h01.00.187,run,2024.2.4,None,2025-10-23 17h01.06.624979 +0800,
5,0,5,0,0,0,0,0,0,0,0,5,0,5,0,3.0206485000089742,,,,,,,,,,,,,3.006065599998692,3.0060962999996264,,,,557080,001,2025-10-23_17h01.00.187,run,2024.2.4,None,2025-10-23 17h01.06.624979 +0800,
6,0,6,0,0,0,0,0,0,0,0,6,0,6,0,3.0206485000089742,,,,,,,,,,,,,3.0073968000069726,3.007435500010615,,,,557080,001,2025-10-23_17h01.00.187,run,2024.2.4,None,2025-10-23 17h01.06.624979 +0800,
7,0,7,0,0,0,0,0,0,0,0,7,0,7,0,3.0206485000089742,,,,,,,,,,,,,3.00824090000242,3.0082704999949783,,,,557080,001,2025-10-23_17h01.00.187,run,2024.2.4,None,2025-10-23 17h01.06.624979 +0800,
8,0,8,0,0,0,0,0,0,0,0,8,0,8,0,3.0206485000089742,,,,,,,,,,,,,3.008932400000049,3.008956700010458,,,,557080,001,2025-10-23_17h01.00.187,run,2024.2.4,None,2025-10-23 17h01.06.624979 +0800,
9,0,9,0,0,0,0,0,0,0,0,9,0,9,0,3.0206485000089742,,,,,,,,,,,,,3.010176000010688,3.0102059000055306,,,,557080,001,2025-10-23_17h01.00.187,run,2024.2.4,None,2025-10-23 17h01.06.624979 +0800,
10,0,10,0,0,0,0,0,0,0,0,10,0,10,0,3.0206485000089742,,,,,,,,,,,,,3.011315799987642,3.011351699999068,,,,557080,001,2025-10-23_17h01.00.187,run,2024.2.4,None,2025-10-23 17h01.06.624979 +0800,
11,0,11,0,0,0,0,0,0,0,0,11,0,11,0,3.0206485000089742,,,,,,,,,,,,,3.0117344000027515,3.01176540000597,,,,557080,001,2025-10-23_17h01.00.187,run,2024.2.4,None,2025-10-23 17h01.06.624979 +0800,
12,0,12,0,0,0,0,0,0,0,0,12,0,12,0,3.0206485000089742,,,,,,,,,,,,,3.013109899999108,3.0131390999886207,,,,557080,001,2025-10-23_17h01.00.187,run,2024.2.4,None,2025-10-23 17h01.06.624979 +0800,
13,0,13,0,0,0,0,0,0,0,0,13,0,13,0,3.0206485000089742,,,,,,,,,,,,,3.0138667999999598,3.020846100000199,3.0206485000089742,3.0206485000089742,3.0206485000089742,557080,001,2025-10-23_17h01.00.187,run,2024.2.4,None,2025-10-23 17h01.06.624979 +0800,
14,0,14,0,0,0,0,0,0,0,0,14,0,14,0,3.0365004999912344,,,,,,,,,,,,,3.022097400011262,3.022125399991637,,,,557080,001,2025-10-23_17h01.00.187,run,2024.2.4,None,2025-10-23 17h01.06.624979 +0800,
15,0,15,0,0,0,0,0,0,0,0,15,0,15,0,3.0365004999912344,,,,,,,,,,,,,3.023002700007055,3.0230395999969915,,,,557080,001,2025-10-23_17h01.00.187,run,2024.2.4,None,2025-10-23 17h01.06.624979 +0800,
16,0,16,0,0,0,0,0,0,0,0,16,0,16,0,3.0365004999912344,,,,,,,,,,,,,3.024162099987734,3.024194700003136,,,,557080,001,2025-10-23_17h01.00.187,run,2024.2.4,None,2025-10-23 17h01.06.624979 +0800,
17,0,17,0,0,0,0,0,0,0,0,17,0,17,0,3.0365004999912344,,,,,,,,,,,,,3.024956499983091,3.0249829000094905,,,,557080,001,2025-10-23_17h01.00.187,run,2024.2.4,None,2025-10-23 17h01.06.624979 +0800,
18,0,18,0,0,0,0,0,0,0,0,18,0,18,0,3.0365004999912344,,,,,,,,,,,,,3.026153999991948,3.0261805999907665,,,,557080,001,2025-10-23_17h01.00.187,run,2024.2.4,None,2025-10-23 17h01.06.624979 +0800,
19,0,19,0,0,0,0,0,0,0,0,19,0,19,0,3.0365004999912344,,,,,,,,,,,,,3.027085999987321,3.0271098999946844,,,,557080,001,2025-10-23_17h01.00.187,run,2024.2.4,None,2025-10-23 17h01.06.624979 +0800,
20,0,20,0,0,0,0,0,0,0,0,20,0,20,0,3.0365004999912344,,,,,,,,,,,,,3.0281774000031874,3.0366763999918476,3.0365004999912344,3.0365004999912344,3.0365004999912344,557080,001,2025-10-23_17h01.00.187,run,2024.2.4,None,2025-10-23 17h01.06.624979 +0800,
21,0,21,0,0,0,0,0,0,0,0,21,0,21,0,3.059458600007929,,,,,,,,,,,,,3.038650600006804,3.0386845000030007,,,,557080,001,2025-10-23_17h01.00.187,run,2024.2.4,None,2025-10-23 17h01.06.624979 +0800,
22,0,22,0,0,0,0,0,0,0,0,22,0,22,0,3.059458600007929,,,,,,,,,,,,,3.04070139999385,3.0407440999988467,,,,557080,001,2025-10-23_17h01.00.187,run,2024.2.4,None,2025-10-23 17h01.06.624979 +0800,
23,0,23,0,0,0,0,0,0,0,0,23,0,23,0,3.059458600007929,,,,,,,,,,,,,3.0425202999904286,3.0425808999862056,,,,557080,001,2025-10-23_17h01.00.187,run,2024.2.4,None,2025-10-23 17h01.06.624979 +0800,
24,0,24,0,0,0,0,0,0,0,0,24,0,24,0,3.059458600007929,,,,,,,,,,,,,3.044433300005039,3.044524500000989,,,,557080,001,2025-10-23_17h01.00.187,run,2024.2.4,None,2025-10-23 17h01.06.624979 +0800,
25,0,25,0,0,0,0,0,0,0,0,25,0,25,0,3.059458600007929,,,,,,,,,,,,,3.0459838999959175,3.0460190000012517,,,,557080,001,2025-10-23_17h01.00.187,run,2024.2.4,None,2025-10-23 17h01.06.624979 +0800,
26,0,26,0,0,0,0,0,0,0,0,26,0,26,0,3.059458600007929,,,,,,,,,,,,,3.047045799990883,3.0470762999902945,,,,557080,001,2025-10-23_17h01.00.187,run,2024.2.4,None,2025-10-23 17h01.06.624979 +0800,
27,0,27,0,0,0,0,0,0,0,0,27,0,27,0,3.059458600007929,,,,,,,,,,,,,3.04811149998568,3.048181399994064,,,,557080,001,2025-10-23_17h01.00.187,run,2024.2.4,None,2025-10-23 17h01.06.624979 +0800,
28,0,28,0,0,0,0,0,0,0,0,28,0,28,0,3.059458600007929,,,,,,,,,,,,,3.0490181999921333,3.049053800001275,,,,557080,001,2025-10-23_17h01.00.187,run,2024.2.4,None,2025-10-23 17h01.06.624979 +0800,
29,0,29,0,0,0,0,0,0,0,0,29,0,29,0,3.059458600007929,,,,,,,,,,,,,3.0500277999963146,3.0500568999850657,,,,557080,001,2025-10-23_17h01.00.187,run,2024.2.4,None,2025-10-23 17h01.06.624979 +0800,
30,0,30,0,0,0,0,0,0,0,0,30,0,30,0,3.059458600007929,,,,,,,,,,,,,3.0509157000051346,3.0509449999954086,,,,557080,001,2025-10-23_17h01.00.187,run,2024.2.4,None,2025-10-23 17h01.06.624979 +0800,
31,0,31,0,0,0,0,0,0,0,0,31,0,31,0,3.059458600007929,,,,,,,,,,,,,3.0520025999867357,3.0520283000078052,,,,557080,001,2025-10-23_17h01.00.187,run,2024.2.4,None,2025-10-23 17h01.06.624979 +0800,
32,0,32,0,0,0,0,0,0,0,0,32,0,32,0,3.059458600007929,,,,,,,,,,,,,3.0530706999998074,3.053127699997276,,,,557080,001,2025-10-23_17h01.00.187,run,2024.2.4,None,2025-10-23 17h01.06.624979 +0800,
33,0,33,0,0,0,0,0,0,0,0,33,0,33,0,3.059458600007929,,,,,,,,,,,,,3.053899199992884,3.0596702999901026,3.059458600007929,3.059458600007929,3.059458600007929,557080,001,2025-10-23_17h01.00.187,run,2024.2.4,None,2025-10-23 17h01.06.624979 +0800,
34,0,34,0,0,0,0,0,0,0,0,34,0,34,0,3.0707365999987815,,,,,,,,,,,,,3.0611537999939173,3.061198000010336,,,,557080,001,2025-10-23_17h01.00.187,run,2024.2.4,None,2025-10-23 17h01.06.624979 +0800,
35,0,35,0,0,0,0,0,0,0,0,35,0,35,0,3.0707365999987815,,,,,,,,,,,,,3.0620990000024904,3.062145200005034,,,,557080,001,2025-10-23_17h01.00.187,run,2024.2.4,None,2025-10-23 17h01.06.624979 +0800,
36,0,36,0,0,0,0,0,0,0,0,36,0,36,0,3.0707365999987815,,,,,,,,,,,,,3.063438799988944,3.063472699985141,,,,557080,001,2025-10-23_17h01.00.187,run,2024.2.4,None,2025-10-23 17h01.06.624979 +0800,
37,0,37,0,0,0,0,0,0,0,0,37,0,37,0,3.0707365999987815,,,,,,,,,,,,,3.064037600008305,3.0640683000092395,,,,557080,001,2025-10-23_17h01.00.187,run,2024.2.4,None,2025-10-23 17h01.06.624979 +0800,
38,0,38,0,0,0,0,0,0,0,0,38,0,38,0,3.0707365999987815,,,,,,,,,,,,,3.0652595999999903,3.0652998999867123,,,,557080,001,2025-10-23_17h01.00.187,run,2024.2.4,None,2025-10-23 17h01.06.624979 +0800,
39,0,39,0,0,0,0,0,0,0,0,39,0,39,0,3.0707365999987815,,,,,,,,,,,,,3.066198999993503,3.070894100004807,3.0707365999987815,3.0707365999987815,3.0707365999987815,557080,001,2025-10-23_17h01.00.187,run,2024.2.4,None,2025-10-23 17h01.06.624979 +0800,
40,0,40,0,0,0,0,0,0,0,0,40,0,40,0,3.0868167000007816,,,,,,,,,,,,,3.072022599983029,3.0720602000073995,,,,557080,001,2025-10-23_17h01.00.187,run,2024.2.4,None,2025-10-23 17h01.06.624979 +0800,
41,0,41,0,0,0,0,0,0,0,0,41,0,41,0,3.0868167000007816,,,,,,,,,,,,,3.073062299983576,3.073093799990602,,,,557080,001,2025-10-23_17h01.00.187,run,2024.2.4,None,2025-10-23 17h01.06.624979 +0800,
42,0,42,0,0,0,0,0,0,0,0,42,0,42,0,3.0868167000007816,,,,,,,,,,,,,3.07413729999098,3.07417279999936,,,,557080,001,2025-10-23_17h01.00.187,run,2024.2.4,None,2025-10-23 17h01.06.624979 +0800,
43,0,43,0,0,0,0,0,0,0,0,43,0,43,0,3.0868167000007816,,,,,,,,,,,,,3.075202200008789,3.0752346999943256,,,,557080,001,2025-10-23_17h01.00.187,run,2024.2.4,None,2025-10-23 17h01.06.624979 +0800,
44,0,44,0,0,0,0,0,0,0,0,44,0,44,0,3.0868167000007816,,,,,,,,,,,,,3.076310700009344,3.087258199986536,3.0868167000007816,3.0868167000007816,3.0868167000007816,557080,001,2025-10-23_17h01.00.187,run,2024.2.4,None,2025-10-23 17h01.06.624979 +0800,
45,0,45,0,0,0,0,0,0,0,0,45,0,45,0,3.1050211999972817,,,,,,,,,,,,,3.0881186999904457,3.0881531999912113,,,,557080,001,2025-10-23_17h01.00.187,run,2024.2.4,None,2025-10-23 17h01.06.624979 +0800,
46,0,46,0,0,0,0,0,0,0,0,46,0,46,0,3.1050211999972817,,,,,,,,,,,,,3.089108199987095,3.0891396999941207,,,,557080,001,2025-10-23_17h01.00.187,run,2024.2.4,None,2025-10-23 17h01.06.624979 +0800,
47,0,47,0,0,0,0,0,0,0,0,47,0,47,0,3.1050211999972817,,,,,,,,,,,,,3.0905506999988575,3.0905867999827024,,,,557080,001,2025-10-23_17h01.00.187,run,2024.2.4,None,2025-10-23 17h01.06.624979 +0800,
48,0,48,0,0,0,0,0,0,0,0,48,0,48,0,3.1050211999972817,,,,,,,,,,,,,3.0921931999910157,3.092220799997449,,,,557080,001,2025-10-23_17h01.00.187,run,2024.2.4,None,2025-10-23 17h01.06.624979 +0800,
49,0,49,0,0,0,0,0,0,0,0,49,0,49,0,3.1050211999972817,,,,,,,,,,,,,3.0928949000081047,3.092921800009208,,,,557080,001,2025-10-23_17h01.00.187,run,2024.2.4,None,2025-10-23 17h01.06.624979 +0800,
50,0,50,0,0,0,0,0,0,0,0,50,0,50,0,3.1050211999972817,,,,,,,,,,,,,3.0939804000081494,3.0940094999969006,,,,557080,001,2025-10-23_17h01.00.187,run,2024.2.4,None,2025-10-23 17h01.06.624979 +0800,
51,0,51,0,0,0,0,0,0,0,0,51,0,51,0,3.1050211999972817,,,,,,,,,,,,,3.095186799997464,3.0952364999975543,,,,557080,001,2025-10-23_17h01.00.187,run,2024.2.4,None,2025-10-23 17h01.06.624979 +0800,
52,0,52,0,0,0,0,0,0,0,0,52,0,52,0,3.1050211999972817,,,,,,,,,,,,,3.096011199988425,3.0960400000039954,,,,557080,001,2025-10-23_17h01.00.187,run,2024.2.4,None,2025-10-23 17h01.06.624979 +0800,
53,0,53,0,0,0,0,0,0,0,0,53,0,53,0,3.1050211999972817,,,,,,,,,,,,,3.0970806000113953,3.097109199996339,,,,557080,001,2025-10-23_17h01.00.187,run,2024.2.4,None,2025-10-23 17h01.06.624979 +0800,
54,0,54,0,0,0,0,0,0,0,0,54,0,54,0,3.1050211999972817,,,,,,,,,,,,,3.097959600010654,3.0979892000032123,,,,557080,001,2025-10-23_17h01.00.187,run,2024.2.4,None,2025-10-23 17h01.06.624979 +0800,
55,0,55,0,0,0,0,0,0,0,0,55,0,55,0,3.1050211999972817,,,,,,,,,,,,,3.099115899996832,3.0991482000099495,,,,557080,001,2025-10-23_17h01.00.187,run,2024.2.4,None,2025-10-23 17h01.06.624979 +0800,
56,0,56,0,0,0,0,0,0,0,0,56,0,56,0,3.1050211999972817,,,,,,,,,,,,,3.099994099989999,3.105192099988926,3.1050211999972817,3.1050211999972817,3.1050211999972817,557080,001,2025-10-23_17h01.00.187,run,2024.2.4,None,2025-10-23 17h01.06.624979 +0800,
57,0,57,0,0,0,0,0,0,0,0,57,0,57,0,3.120875699998578,,,,,,,,,,,,,3.10600460000569,3.1060374999942724,,,,557080,001,2025-10-23_17h01.00.187,run,2024.2.4,None,2025-10-23 17h01.06.624979 +0800,
58,0,58,0,0,0,0,0,0,0,0,58,0,58,0,3.120875699998578,,,,,,,,,,,,,3.1069612999854144,3.1070057000033557,,,,557080,001,2025-10-23_17h01.00.187,run,2024.2.4,None,2025-10-23 17h01.06.624979 +0800,
59,0,59,0,0,0,0,0,0,0,0,59,0,59,0,3.120875699998578,,,,,,,,,,,,,3.108013499993831,3.108053600008134,,,,557080,001,2025-10-23_17h01.00.187,run,2024.2.4,None,2025-10-23 17h01.06.624979 +0800,
60,0,60,0,0,0,0,0,0,0,0,60,0,60,0,3.120875699998578,,,,,,,,,,,,,3.109010899992427,3.109041999996407,,,,557080,001,2025-10-23_17h01.00.187,run,2024.2.4,None,2025-10-23 17h01.06.624979 +0800,
61,0,61,0,0,0,0,0,0,0,0,61,0,61,0,3.120875699998578,,,,,,,,,,,,,3.1100086999940686,3.1210229999851435,3.120875699998578,3.120875699998578,3.120875699998578,557080,001,2025-10-23_17h01.00.187,run,2024.2.4,None,2025-10-23 17h01.06.624979 +0800,
62,0,62,0,0,0,0,0,0,0,0,62,0,62,0,3.138223099987954,,,,,,,,,,,,,3.1215079000103287,3.1215474999917205,,,,557080,001,2025-10-23_17h01.00.187,run,2024.2.4,None,2025-10-23 17h01.06.624979 +0800,
63,0,63,0,0,0,0,0,0,0,0,63,0,63,0,3.138223099987954,,,,,,,,,,,,,3.1221837000048254,3.122207400010666,,,,557080,001,2025-10-23_17h01.00.187,run,2024.2.4,None,2025-10-23 17h01.06.624979 +0800,
64,0,64,0,0,0,0,0,0,0,0,64,0,64,0,3.138223099987954,,,,,,,,,,,,,3.1230976000078954,3.123131400003331,,,,557080,001,2025-10-23_17h01.00.187,run,2024.2.4,None,2025-10-23 17h01.06.624979 +0800,
65,0,65,0,0,0,0,0,0,0,0,65,0,65,0,3.138223099987954,,,,,,,,,,,,,3.1242803999921307,3.12433140000212,,,,557080,001,2025-10-23_17h01.00.187,run,2024.2.4,None,2025-10-23 17h01.06.624979 +0800,
66,0,66,0,0,0,0,0,0,0,0,66,0,66,0,3.138223099987954,,,,,,,,,,,,,3.1252335000026505,3.1252644000051077,,,,557080,001,2025-10-23_17h01.00.187,run,2024.2.4,None,2025-10-23 17h01.06.624979 +0800,
67,0,67,0,0,0,0,0,0,0,0,67,0,67,0,3.138223099987954,,,,,,,,,,,,,3.1259297000069637,3.1259619999909773,,,,557080,001,2025-10-23_17h01.00.187,run,2024.2.4,None,2025-10-23 17h01.06.624979 +0800,
68,0,68,0,0,0,0,0,0,0,0,68,0,68,0,3.138223099987954,,,,,,,,,,,,,3.126841899997089,3.126866100006737,,,,557080,001,2025-10-23_17h01.00.187,run,2024.2.4,None,2025-10-23 17h01.06.624979 +0800,
69,0,69,0,0,0,0,0,0,0,0,69,0,69,0,3.138223099987954,,,,,,,,,,,,,3.1282883000094444,3.128341300005559,,,,557080,001,2025-10-23_17h01.00.187,run,2024.2.4,None,2025-10-23 17h01.06.624979 +0800,
70,0,70,0,0,0,0,0,0,0,0,70,0,70,0,3.138223099987954,,,,,,,,,,,,,3.128893599990988,3.1289230000111274,,,,557080,001,2025-10-23_17h01.00.187,run,2024.2.4,None,2025-10-23 17h01.06.624979 +0800,
71,0,71,0,0,0,0,0,0,0,0,71,0,71,0,3.138223099987954,,,,,,,,,,,,,3.130046100006439,3.13838640000904,3.138223099987954,3.138223099987954,3.138223099987954,557080,001,2025-10-23_17h01.00.187,run,2024.2.4,None,2025-10-23 17h01.06.624979 +0800,
72,0,72,0,0,0,0,0,0,0,0,72,0,72,0,3.1507893000089098,,,,,,,,,,,,,3.1389726999914274,3.1390054000075907,,,,557080,001,2025-10-23_17h01.00.187,run,2024.2.4,None,2025-10-23 17h01.06.624979 +0800,
73,0,73,0,0,0,0,0,0,0,0,73,0,73,0,3.1507893000089098,,,,,,,,,,,,,3.1400055999984033,3.140041700011352,,,,557080,001,2025-10-23_17h01.00.187,run,2024.2.4,None,2025-10-23 17h01.06.624979 +0800,
74,0,74,0,0,0,0,0,0,0,0,74,0,74,0,3.1507893000089098,,,,,,,,,,,,,3.141261399985524,3.141316499997629,,,,557080,001,2025-10-23_17h01.00.187,run,2024.2.4,None,2025-10-23 17h01.06.624979 +0800,
75,0,75,0,0,0,0,0,0,0,0,75,0,75,0,3.1507893000089098,,,,,,,,,,,,,3.1420867999840993,3.1421171999827493,,,,557080,001,2025-10-23_17h01.00.187,run,2024.2.4,None,2025-10-23 17h01.06.624979 +0800,
76,0,76,0,0,0,0,0,0,0,0,76,0,76,0,3.1507893000089098,,,,,,,,,,,,,3.142973699985305,3.1430002999841236,,,,557080,001,2025-10-23_17h01.00.187,run,2024.2.4,None,2025-10-23 17h01.06.624979 +0800,
77,0,77,0,0,0,0,0,0,0,0,77,0,77,0,3.1507893000089098,,,,,,,,,,,,,3.1439099999843165,3.143937399989227,,,,557080,001,2025-10-23_17h01.00.187,run,2024.2.4,None,2025-10-23 17h01.06.624979 +0800,
78,0,78,0,0,0,0,0,0,0,0,78,0,78,0,3.1507893000089098,,,,,,,,,,,,,3.1453866999945603,3.1454152000078466,,,,557080,001,2025-10-23_17h01.00.187,run,2024.2.4,None,2025-10-23 17h01.06.624979 +0800,
79,0,79,0,0,0,0,0,0,0,0,79,0,79,0,3.1507893000089098,,,,,,,,,,,,,3.14587889998802,3.1509313999849837,3.1507893000089098,3.1507893000089098,3.1507893000089098,557080,001,2025-10-23_17h01.00.187,run,2024.2.4,None,2025-10-23 17h01.06.624979 +0800,
80,0,80,0,0,0,0,0,0,0,0,80,0,80,0,3.163347599998815,,,,,,,,,,,,,3.152108499984024,3.1521393999864813,,,,557080,001,2025-10-23_17h01.00.187,run,2024.2.4,None,2025-10-23 17h01.06.624979 +0800,
81,0,81,0,0,0,0,0,0,0,0,81,0,81,0,3.163347599998815,,,,,,,,,,,,,3.1535041999886744,3.153541200008476,,,,557080,001,2025-10-23_17h01.00.187,run,2024.2.4,None,2025-10-23 17h01.06.624979 +0800,
82,0,82,0,0,0,0,0,0,0,0,82,0,82,0,3.163347599998815,,,,,,,,,,,,,3.15415230000508,3.1541816999961156,,,,557080,001,2025-10-23_17h01.00.187,run,2024.2.4,None,2025-10-23 17h01.06.624979 +0800,
83,0,83,0,0,0,0,0,0,0,0,83,0,83,0,3.163347599998815,,,,,,,,,,,,,3.155074499984039,3.155102499993518,,,,557080,001,2025-10-23_17h01.00.187,run,2024.2.4,None,2025-10-23 17h01.06.624979 +0800,
84,0,84,0,0,0,0,0,0,0,0,84,0,84,0,3.163347599998815,,,,,,,,,,,,,3.1559978000004776,3.1635210000094958,3.163347599998815,3.163347599998815,3.163347599998815,557080,001,2025-10-23_17h01.00.187,run,2024.2.4,None,2025-10-23 17h01.06.624979 +0800,
85,0,85,0,0,0,0,0,0,0,0,85,0,85,0,3.192708999995375,,,,,,,,,,,,,3.1653081999975257,3.1653516000078525,,,,557080,001,2025-10-23_17h01.00.187,run,2024.2.4,None,2025-10-23 17h01.06.624979 +0800,
86,0,86,0,0,0,0,0,0,0,0,86,0,86,0,3.192708999995375,,,,,,,,,,,,,3.1660153999982867,3.166057800000999,,,,557080,001,2025-10-23_17h01.00.187,run,2024.2.4,None,2025-10-23 17h01.06.624979 +0800,
87,0,87,0,0,0,0,0,0,0,0,87,0,87,0,3.192708999995375,,,,,,,,,,,,,3.167094000003999,3.167127699998673,,,,557080,001,2025-10-23_17h01.00.187,run,2024.2.4,None,2025-10-23 17h01.06.624979 +0800,
88,0,88,0,0,0,0,0,0,0,0,88,0,88,0,3.192708999995375,,,,,,,,,,,,,3.1680197000096086,3.1680498000059742,,,,557080,001,2025-10-23_17h01.00.187,run,2024.2.4,None,2025-10-23 17h01.06.624979 +0800,
89,0,89,0,0,0,0,0,0,0,0,89,0,89,0,3.192708999995375,,,,,,,,,,,,,3.1692531000007875,3.169299500004854,,,,557080,001,2025-10-23_17h01.00.187,run,2024.2.4,None,2025-10-23 17h01.06.624979 +0800,
90,0,90,0,0,0,0,0,0,0,0,90,0,90,0,3.192708999995375,,,,,,,,,,,,,3.17040899998392,3.1706458999833558,,,,557080,001,2025-10-23_17h01.00.187,run,2024.2.4,None,2025-10-23 17h01.06.624979 +0800,
91,0,91,0,0,0,0,0,0,0,0,91,0,91,0,3.192708999995375,,,,,,,,,,,,,3.1718964999890886,3.1719239999947604,,,,557080,001,2025-10-23_17h01.00.187,run,2024.2.4,None,2025-10-23 17h01.06.624979 +0800,
92,0,92,0,0,0,0,0,0,0,0,92,0,92,0,3.192708999995375,,,,,,,,,,,,,3.1730480999976862,3.1730750999995507,,,,557080,001,2025-10-23_17h01.00.187,run,2024.2.4,None,2025-10-23 17h01.06.624979 +0800,
93,0,93,0,0,0,0,0,0,0,0,93,0,93,0,3.192708999995375,,,,,,,,,,,,,3.174935999995796,3.1750925999949686,,,,557080,001,2025-10-23_17h01.00.187,run,2024.2.4,None,2025-10-23 17h01.06.624979 +0800,
94,0,94,0,0,0,0,0,0,0,0,94,0,94,0,3.192708999995375,,,,,,,,,,,,,3.1773844999843277,3.1783833999943454,,,,557080,001,2025-10-23_17h01.00.187,run,2024.2.4,None,2025-10-23 17h01.06.624979 +0800,
95,0,95,0,0,0,0,0,0,0,0,95,0,95,0,3.192708999995375,,,,,,,,,,,,,3.180537500011269,3.1806199999991804,,,,557080,001,2025-10-23_17h01.00.187,run,2024.2.4,None,2025-10-23 17h01.06.624979 +0800,
96,0,96,0,0,0,0,0,0,0,0,96,0,96,0,3.192708999995375,,,,,,,,,,,,,3.181570399989141,3.1816468999895733,,,,557080,001,2025-10-23_17h01.00.187,run,2024.2.4,None,2025-10-23 17h01.06.624979 +0800,
97,0,97,0,0,0,0,0,0,0,0,97,0,97,0,3.192708999995375,,,,,,,,,,,,,3.1829552999988664,3.18303190000006,,,,557080,001,2025-10-23_17h01.00.187,run,2024.2.4,None,2025-10-23 17h01.06.624979 +0800,
98,0,98,0,0,0,0,0,0,0,0,98,0,98,0,3.192708999995375,,,,,,,,,,,,,3.1847233999869786,3.184799999988172,,,,557080,001,2025-10-23_17h01.00.187,run,2024.2.4,None,2025-10-23 17h01.06.624979 +0800,
99,0,99,0,0,0,0,0,0,0,0,99,0,99,0,3.192708999995375,,,,,,,,,,,,,3.1855726999929175,3.193019300000742,3.192708999995375,3.192708999995375,3.192708999995375,557080,001,2025-10-23_17h01.00.187,run,2024.2.4,None,2025-10-23 17h01.06.624979 +0800,
100,0,100,0,0,0,0,0,0,0,0,100,0,100,0,3.2048842000076547,,,,,,,,,,,,,3.1946632000035606,3.1947276999999303,,,,557080,001,2025-10-23_17h01.00.187,run,2024.2.4,None,2025-10-23 17h01.06.624979 +0800,
101,0,101,0,0,0,0,0,0,0,0,101,0,101,0,3.2048842000076547,,,,,,,,,,,,,3.195581799984211,3.1956290999951307,,,,557080,001,2025-10-23_17h01.00.187,run,2024.2.4,None,2025-10-23 17h01.06.624979 +0800,
102,0,102,0,0,0,0,0,0,0,0,102,0,102,0,3.2048842000076547,,,,,,,,,,,,,3.1964257000072394,3.196477799996501,,,,557080,001,2025-10-23_17h01.00.187,run,2024.2.4,None,2025-10-23 17h01.06.624979 +0800,
103,0,103,0,0,0,0,0,0,0,0,103,0,103,0,3.2048842000076547,,,,,,,,,,,,,3.1974615000071935,3.197516699990956,,,,557080,001,2025-10-23_17h01.00.187,run,2024.2.4,None,2025-10-23 17h01.06.624979 +0800,
104,0,104,0,0,0,0,0,0,0,0,104,0,104,0,3.2048842000076547,,,,,,,,,,,,,3.198437399987597,3.1984849000000395,,,,557080,001,2025-10-23_17h01.00.187,run,2024.2.4,None,2025-10-23 17h01.06.624979 +0800,
105,0,105,0,0,0,0,0,0,0,0,105,0,105,0,3.2048842000076547,,,,,,,,,,,,,3.199485099990852,3.1995338999840897,,,,557080,001,2025-10-23_17h01.00.187,run,2024.2.4,None,2025-10-23 17h01.06.624979 +0800,
106,0,106,0,0,0,0,0,0,0,0,106,0,106,0,3.2048842000076547,,,,,,,,,,,,,3.2004177999915555,3.2050685999856796,3.2048842000076547,3.2048842000076547,3.2048842000076547,557080,001,2025-10-23_17h01.00.187,run,2024.2.4,None,2025-10-23 17h01.06.624979 +0800,
107,0,107,0,0,0,0,0,0,0,0,107,0,107,0,3.21668710000813,,,,,,,,,,,,,3.2073007999861147,3.2073525000014342,,,,557080,001,2025-10-23_17h01.00.187,run,2024.2.4,None,2025-10-23 17h01.06.624979 +0800,
108,0,108,0,0,0,0,0,0,0,0,108,0,108,0,3.21668710000813,,,,,,,,,,,,,3.2084636999934446,3.2085024999978486,,,,557080,001,2025-10-23_17h01.00.187,run,2024.2.4,None,2025-10-23 17h01.06.624979 +0800,
109,0,109,0,0,0,0,0,0,0,0,109,0,109,0,3.21668710000813,,,,,,,,,,,,,3.2093420999881346,3.2093799999856856,,,,557080,001,2025-10-23_17h01.00.187,run,2024.2.4,None,2025-10-23 17h01.06.624979 +0800,
110,0,110,0,0,0,0,0,0,0,0,110,0,110,0,3.21668710000813,,,,,,,,,,,,,3.210411300009582,3.210443599993596,,,,557080,001,2025-10-23_17h01.00.187,run,2024.2.4,None,2025-10-23 17h01.06.624979 +0800,
111,0,111,0,0,0,0,0,0,0,0,111,0,111,0,3.21668710000813,,,,,,,,,,,,,3.2112944000109565,3.211329999990994,,,,557080,001,2025-10-23_17h01.00.187,run,2024.2.4,None,2025-10-23 17h01.06.624979 +0800,
112,0,112,0,0,0,0,0,0,0,0,112,0,112,0,3.21668710000813,,,,,,,,,,,,,3.212291900010314,3.217026199999964,3.21668710000813,3.21668710000813,3.21668710000813,557080,001,2025-10-23_17h01.00.187,run,2024.2.4,None,2025-10-23 17h01.06.624979 +0800,
113,0,113,0,0,0,0,0,0,0,0,113,0,113,0,3.2296724999905564,,,,,,,,,,,,,3.2184957999852486,3.218528099998366,,,,557080,001,2025-10-23_17h01.00.187,run,2024.2.4,None,2025-10-23 17h01.06.624979 +0800,
114,0,114,0,0,0,0,0,0,0,0,114,0,114,0,3.2296724999905564,,,,,,,,,,,,,3.2196495000098366,3.2196851999906357,,,,557080,001,2025-10-23_17h01.00.187,run,2024.2.4,None,2025-10-23 17h01.06.624979 +0800,
115,0,115,0,0,0,0,0,0,0,0,115,0,115,0,3.2296724999905564,,,,,,,,,,,,,3.2203677000070456,3.2204100000089966,,,,557080,001,2025-10-23_17h01.00.187,run,2024.2.4,None,2025-10-23 17h01.06.624979 +0800,
116,0,116,0,0,0,0,0,0,0,0,116,0,116,0,3.2296724999905564,,,,,,,,,,,,,3.2211671999830287,3.2211936000094283,,,,557080,001,2025-10-23_17h01.00.187,run,2024.2.4,None,2025-10-23 17h01.06.624979 +0800,
117,0,117,0,0,0,0,0,0,0,0,117,0,117,0,3.2296724999905564,,,,,,,,,,,,,3.2222498999908566,3.2298379999992903,3.2296724999905564,3.2296724999905564,3.2296724999905564,557080,001,2025-10-23_17h01.00.187,run,2024.2.4,None,2025-10-23 17h01.06.624979 +0800,
118,0,118,0,0,0,0,0,0,0,0,118,0,118,0,3.241989200003445,,,,,,,,,,,,,3.230261499993503,3.2302954999904614,,,,557080,001,2025-10-23_17h01.00.187,run,2024.2.4,None,2025-10-23 17h01.06.624979 +0800,
119,0,119,0,0,0,0,0,0,0,0,119,0,119,0,3.241989200003445,,,,,,,,,,,,,3.231234000006225,3.2313171999994665,,,,557080,001,2025-10-23_17h01.00.187,run,2024.2.4,None,2025-10-23 17h01.06.624979 +0800,
120,0,120,0,0,0,0,0,0,0,0,120,0,120,0,3.241989200003445,,,,,,,,,,,,,3.2323700999841094,3.232405699993251,,,,557080,001,2025-10-23_17h01.00.187,run,2024.2.4,None,2025-10-23 17h01.06.624979 +0800,
121,0,121,0,0,0,0,0,0,0,0,121,0,121,0,3.241989200003445,,,,,,,,,,,,,3.2333686999918427,3.2334027999895625,,,,557080,001,2025-10-23_17h01.00.187,run,2024.2.4,None,2025-10-23 17h01.06.624979 +0800,
122,0,122,0,0,0,0,0,0,0,0,122,0,122,0,3.241989200003445,,,,,,,,,,,,,3.234386700001778,3.234415999992052,,,,557080,001,2025-10-23_17h01.00.187,run,2024.2.4,None,2025-10-23 17h01.06.624979 +0800,
123,0,123,0,0,0,0,0,0,0,0,123,0,123,0,3.241989200003445,,,,,,,,,,,,,3.235299699997995,3.2353262999968138,,,,557080,001,2025-10-23_17h01.00.187,run,2024.2.4,None,2025-10-23 17h01.06.624979 +0800,
124,0,124,0,0,0,0,0,0,0,0,124,0,124,0,3.241989200003445,,,,,,,,,,,,,3.2363633000059053,3.242137199995341,3.241989200003445,3.241989200003445,3.241989200003445,557080,001,2025-10-23_17h01.00.187,run,2024.2.4,None,2025-10-23 17h01.06.624979 +0800,
125,0,125,0,0,0,0,0,0,0,0,125,0,125,0,3.253939199988963,,,,,,,,,,,,,3.2433136999898124,3.243342900008429,,,,557080,001,2025-10-23_17h01.00.187,run,2024.2.4,None,2025-10-23 17h01.06.624979 +0800,
126,0,126,0,0,0,0,0,0,0,0,126,0,126,0,3.253939199988963,,,,,,,,,,,,,3.244478300010087,3.2445332999923266,,,,557080,001,2025-10-23_17h01.00.187,run,2024.2.4,None,2025-10-23 17h01.06.624979 +0800,
127,0,127,0,0,0,0,0,0,0,0,127,0,127,0,3.253939199988963,,,,,,,,,,,,,3.245442199986428,3.2454760000109673,,,,557080,001,2025-10-23_17h01.00.187,run,2024.2.4,None,2025-10-23 17h01.06.624979 +0800,
128,0,128,0,0,0,0,0,0,0,0,128,0,128,0,3.253939199988963,,,,,,,,,,,,,3.2463133999845013,3.24633999998332,,,,557080,001,2025-10-23_17h01.00.187,run,2024.2.4,None,2025-10-23 17h01.06.624979 +0800,
129,0,129,0,0,0,0,0,0,0,0,129,0,129,0,3.253939199988963,,,,,,,,,,,,,3.247322000010172,3.2473432999977376,,,,557080,001,2025-10-23_17h01.00.187,run,2024.2.4,None,2025-10-23 17h01.06.624979 +0800,
130,0,130,0,0,0,0,0,0,0,0,130,0,130,0,3.253939199988963,,,,,,,,,,,,,3.248372300004121,3.25410049999482,3.253939199988963,3.253939199988963,3.253939199988963,557080,001,2025-10-23_17h01.00.187,run,2024.2.4,None,2025-10-23 17h01.06.624979 +0800,
131,0,131,0,0,0,0,0,0,0,0,131,0,131,0,3.2701453999907244,,,,,,,,,,,,,3.2554197999997996,3.2554525999876205,,,,557080,001,2025-10-23_17h01.00.187,run,2024.2.4,None,2025-10-23 17h01.06.624979 +0800,
132,0,132,0,0,0,0,0,0,0,0,132,0,132,0,3.2701453999907244,,,,,,,,,,,,,3.2565939000051003,3.2566339999902993,,,,557080,001,2025-10-23_17h01.00.187,run,2024.2.4,None,2025-10-23 17h01.06.624979 +0800,
133,0,133,0,0,0,0,0,0,0,0,133,0,133,0,3.2701453999907244,,,,,,,,,,,,,3.257422900001984,3.2574627999856602,,,,557080,001,2025-10-23_17h01.00.187,run,2024.2.4,None,2025-10-23 17h01.06.624979 +0800,
134,0,134,0,0,0,0,0,0,0,0,134,0,134,0,3.2701453999907244,,,,,,,,,,,,,3.25825809998787,3.2583002999890596,,,,557080,001,2025-10-23_17h01.00.187,run,2024.2.4,None,2025-10-23 17h01.06.624979 +0800,
135,0,135,0,0,0,0,0,0,0,0,135,0,135,0,3.2701453999907244,,,,,,,,,,,,,3.2592688000004273,3.259301799989771,,,,557080,001,2025-10-23_17h01.00.187,run,2024.2.4,None,2025-10-23 17h01.06.624979 +0800,
136,0,136,0,0,0,0,0,0,0,0,136,0,136,0,3.2701453999907244,,,,,,,,,,,,,3.2602690999920014,3.2703078000049572,3.2701453999907244,3.2701453999907244,3.2701453999907244,557080,001,2025-10-23_17h01.00.187,run,2024.2.4,None,2025-10-23 17h01.06.624979 +0800,
137,0,137,0,0,0,0,0,0,0,0,137,0,137,0,3.2885272999992594,,,,,,,,,,,,,3.2715939999907278,3.2716266000061296,,,,557080,001,2025-10-23_17h01.00.187,run,2024.2.4,None,2025-10-23 17h01.06.624979 +0800,
138,0,138,0,0,0,0,0,0,0,0,138,0,138,0,3.2885272999992594,,,,,,,,,,,,,3.2722881000081543,3.2723191999830306,,,,557080,001,2025-10-23_17h01.00.187,run,2024.2.4,None,2025-10-23 17h01.06.624979 +0800,
139,0,139,0,0,0,0,0,0,0,0,139,0,139,0,3.2885272999992594,,,,,,,,,,,,,3.2734326999925543,3.2734818999888375,,,,557080,001,2025-10-23_17h01.00.187,run,2024.2.4,None,2025-10-23 17h01.06.624979 +0800,
140,0,140,0,0,0,0,0,0,0,0,140,0,140,0,3.2885272999992594,,,,,,,,,,,,,3.274571499990998,3.2746163999836426,,,,557080,001,2025-10-23_17h01.00.187,run,2024.2.4,None,2025-10-23 17h01.06.624979 +0800,
141,0,141,0,0,0,0,0,0,0,0,141,0,141,0,3.2885272999992594,,,,,,,,,,,,,3.275345500005642,3.2753788999980316,,,,557080,001,2025-10-23_17h01.00.187,run,2024.2.4,None,2025-10-23 17h01.06.624979 +0800,
142,0,142,0,0,0,0,0,0,0,0,142,0,142,0,3.2885272999992594,,,,,,,,,,,,,3.276392100000521,3.2764181999955326,,,,557080,001,2025-10-23_17h01.00.187,run,2024.2.4,None,2025-10-23 17h01.06.624979 +0800,
143,0,143,0,0,0,0,0,0,0,0,143,0,143,0,3.2885272999992594,,,,,,,,,,,,,3.2773907000082545,3.277423599996837,,,,557080,001,2025-10-23_17h01.00.187,run,2024.2.4,None,2025-10-23 17h01.06.624979 +0800,
144,0,144,0,0,0,0,0,0,0,0,144,0,144,0,3.2885272999992594,,,,,,,,,,,,,3.278550799994264,3.2785813999944367,,,,557080,001,2025-10-23_17h01.00.187,run,2024.2.4,None,2025-10-23 17h01.06.624979 +0800,
145,0,145,0,0,0,0,0,0,0,0,145,0,145,0,3.2885272999992594,,,,,,,,,,,,,3.279358800005866,3.2793888000014704,,,,557080,001,2025-10-23_17h01.00.187,run,2024.2.4,None,2025-10-23 17h01.06.624979 +0800,
146,0,146,0,0,0,0,0,0,0,0,146,0,146,0,3.2885272999992594,,,,,,,,,,,,,3.2802569000050426,3.2887441999919247,3.2885272999992594,3.2885272999992594,3.2885272999992594,557080,001,2025-10-23_17h01.00.187,run,2024.2.4,None,2025-10-23 17h01.06.624979 +0800,
147,0,147,0,0,0,0,0,0,0,0,147,0,147,0,3.304880299983779,,,,,,,,,,,,,3.2892743999836966,3.2893012999847997,,,,557080,001,2025-10-23_17h01.00.187,run,2024.2.4,None,2025-10-23 17h01.06.624979 +0800,
148,0,148,0,0,0,0,0,0,0,0,148,0,148,0,3.304880299983779,,,,,,,,,,,,,3.2906691000098363,3.2907150000100955,,,,557080,001,2025-10-23_17h01.00.187,run,2024.2.4,None,2025-10-23 17h01.06.624979 +0800,
149,0,149,0,0,0,0,0,0,0,0,149,0,149,0,3.304880299983779,,,,,,,,,,,,,3.2914707000018097,3.291506699984893,,,,557080,001,2025-10-23_17h01.00.187,run,2024.2.4,None,2025-10-23 17h01.06.624979 +0800,
150,0,150,0,0,0,0,0,0,0,0,150,0,150,0,3.304880299983779,,,,,,,,,,,,,3.2922274000011384,3.2922531999938656,,,,557080,001,2025-10-23_17h01.00.187,run,2024.2.4,None,2025-10-23 17h01.06.624979 +0800,
151,0,151,0,0,0,0,0,0,0,0,151,0,151,0,3.304880299983779,,,,,,,,,,,,,3.293340900010662,3.2933626000012737,,,,557080,001,2025-10-23_17h01.00.187,run,2024.2.4,None,2025-10-23 17h01.06.624979 +0800,
152,0,152,0,0,0,0,0,0,0,0,152,0,152,0,3.304880299983779,,,,,,,,,,,,,3.2947572999983095,3.2948047000099905,,,,557080,001,2025-10-23_17h01.00.187,run,2024.2.4,None,2025-10-23 17h01.06.624979 +0800,
153,0,153,0,0,0,0,0,0,0,0,153,0,153,0,3.304880299983779,,,,,,,,,,,,,3.2953428000037093,3.2953718999924604,,,,557080,001,2025-10-23_17h01.00.187,run,2024.2.4,None,2025-10-23 17h01.06.624979 +0800,
154,0,154,0,0,0,0,0,0,0,0,154,0,154,0,3.304880299983779,,,,,,,,,,,,,3.29632940000738,3.305062600004021,3.304880299983779,3.304880299983779,3.304880299983779,557080,001,2025-10-23_17h01.00.187,run,2024.2.4,None,2025-10-23 17h01.06.624979 +0800,
155,0,155,0,0,0,0,0,0,0,0,155,0,155,0,3.321601500007091,,,,,,,,,,,,,3.30638349999208,3.3064163000090048,,,,557080,001,2025-10-23_17h01.00.187,run,2024.2.4,None,2025-10-23 17h01.06.624979 +0800,
156,0,156,0,0,0,0,0,0,0,0,156,0,156,0,3.321601500007091,,,,,,,,,,,,,3.307617599988589,3.307669800007716,,,,557080,001,2025-10-23_17h01.00.187,run,2024.2.4,None,2025-10-23 17h01.06.624979 +0800,
157,0,157,0,0,0,0,0,0,0,0,157,0,157,0,3.321601500007091,,,,,,,,,,,,,3.3085731999890413,3.308604699996067,,,,557080,001,2025-10-23_17h01.00.187,run,2024.2.4,None,2025-10-23 17h01.06.624979 +0800,
158,0,158,0,0,0,0,0,0,0,0,158,0,158,0,3.321601500007091,,,,,,,,,,,,,3.309389400004875,3.309413199982373,,,,557080,001,2025-10-23_17h01.00.187,run,2024.2.4,None,2025-10-23 17h01.06.624979 +0800,
159,0,159,0,0,0,0,0,0,0,0,159,0,159,0,3.321601500007091,,,,,,,,,,,,,3.3103951000084635,3.310419199988246,,,,557080,001,2025-10-23_17h01.00.187,run,2024.2.4,None,2025-10-23 17h01.06.624979 +0800,
160,0,160,0,0,0,0,0,0,0,0,160,0,160,0,3.321601500007091,,,,,,,,,,,,,3.3115173999976832,3.311562299990328,,,,557080,001,2025-10-23_17h01.00.187,run,2024.2.4,None,2025-10-23 17h01.06.624979 +0800,
161,0,161,0,0,0,0,0,0,0,0,161,0,161,0,3.321601500007091,,,,,,,,,,,,,3.312361799995415,3.3123906000109855,,,,557080,001,2025-10-23_17h01.00.187,run,2024.2.4,None,2025-10-23 17h01.06.624979 +0800,
162,0,162,0,0,0,0,0,0,0,0,162,0,162,0,3.321601500007091,,,,,,,,,,,,,3.313209399988409,3.3132323999889195,,,,557080,001,2025-10-23_17h01.00.187,run,2024.2.4,None,2025-10-23 17h01.06.624979 +0800,
163,0,163,0,0,0,0,0,0,0,0,163,0,163,0,3.321601500007091,,,,,,,,,,,,,3.314223800000036,3.3219985000032466,3.321601500007091,3.321601500007091,3.321601500007091,557080,001,2025-10-23_17h01.00.187,run,2024.2.4,None,2025-10-23 17h01.06.624979 +0800,
164,0,164,0,0,0,0,0,0,0,0,164,0,164,0,3.338917399989441,,,,,,,,,,,,,3.32359980000183,3.3236357999849133,,,,557080,001,2025-10-23_17h01.00.187,run,2024.2.4,None,2025-10-23 17h01.06.624979 +0800,
165,0,165,0,0,0,0,0,0,0,0,165,0,165,0,3.338917399989441,,,,,,,,,,,,,3.3245718000107445,3.324606299982406,,,,557080,001,2025-10-23_17h01.00.187,run,2024.2.4,None,2025-10-23 17h01.06.624979 +0800,
166,0,166,0,0,0,0,0,0,0,0,166,0,166,0,3.338917399989441,,,,,,,,,,,,,3.3252973000053316,3.32532689999789,,,,557080,001,2025-10-23_17h01.00.187,run,2024.2.4,None,2025-10-23 17h01.06.624979 +0800,
167,0,167,0,0,0,0,0,0,0,0,167,0,167,0,3.338917399989441,,,,,,,,,,,,,3.3263241999957245,3.3263583999942057,,,,557080,001,2025-10-23_17h01.00.187,run,2024.2.4,None,2025-10-23 17h01.06.624979 +0800,
168,0,168,0,0,0,0,0,0,0,0,168,0,168,0,3.338917399989441,,,,,,,,,,,,,3.32764020000468,3.3276871999842115,,,,557080,001,2025-10-23_17h01.00.187,run,2024.2.4,None,2025-10-23 17h01.06.624979 +0800,
169,0,169,0,0,0,0,0,0,0,0,169,0,169,0,3.338917399989441,,,,,,,,,,,,,3.328338799998164,3.3283681999891996,,,,557080,001,2025-10-23_17h01.00.187,run,2024.2.4,None,2025-10-23 17h01.06.624979 +0800,
170,0,170,0,0,0,0,0,0,0,0,170,0,170,0,3.338917399989441,,,,,,,,,,,,,3.329255099990405,3.3292769999825396,,,,557080,001,2025-10-23_17h01.00.187,run,2024.2.4,None,2025-10-23 17h01.06.624979 +0800,
171,0,171,0,0,0,0,0,0,0,0,171,0,171,0,3.338917399989441,,,,,,,,,,,,,3.3302354000043124,3.339070099988021,3.338917399989441,3.338917399989441,3.338917399989441,557080,001,2025-10-23_17h01.00.187,run,2024.2.4,None,2025-10-23 17h01.06.624979 +0800,
172,0,172,0,0,0,0,0,0,0,0,172,0,172,0,3.355158599995775,,,,,,,,,,,,,3.339485500007868,3.33952139999019,,,,557080,001,2025-10-23_17h01.00.187,run,2024.2.4,None,2025-10-23 17h01.06.624979 +0800,
173,0,173,0,0,0,0,0,0,0,0,173,0,173,0,3.355158599995775,,,,,,,,,,,,,3.3405654999951366,3.3406041999987792,,,,557080,001,2025-10-23_17h01.00.187,run,2024.2.4,None,2025-10-23 17h01.06.624979 +0800,
174,0,174,0,0,0,0,0,0,0,0,174,0,174,0,3.355158599995775,,,,,,,,,,,,,3.3416769999894314,3.3417312999954447,,,,557080,001,2025-10-23_17h01.00.187,run,2024.2.4,None,2025-10-23 17h01.06.624979 +0800,
175,0,175,0,0,0,0,0,0,0,0,175,0,175,0,3.355158599995775,,,,,,,,,,,,,3.3423741000005975,3.34240329999011,,,,557080,001,2025-10-23_17h01.00.187,run,2024.2.4,None,2025-10-23 17h01.06.624979 +0800,
176,0,176,0,0,0,0,0,0,0,0,176,0,176,0,3.355158599995775,,,,,,,,,,,,,3.3432583000103477,3.343282999994699,,,,557080,001,2025-10-23_17h01.00.187,run,2024.2.4,None,2025-10-23 17h01.06.624979 +0800,
177,0,177,0,0,0,0,0,0,0,0,177,0,177,0,3.355158599995775,,,,,,,,,,,,,3.344386599987047,3.3444190000009257,,,,557080,001,2025-10-23_17h01.00.187,run,2024.2.4,None,2025-10-23 17h01.06.624979 +0800,
178,0,178,0,0,0,0,0,0,0,0,178,0,178,0,3.355158599995775,,,,,,,,,,,,,3.345284399983939,3.3453147999825887,,,,557080,001,2025-10-23_17h01.00.187,run,2024.2.4,None,2025-10-23 17h01.06.624979 +0800,
179,0,179,0,0,0,0,0,0,0,0,179,0,179,0,3.355158599995775,,,,,,,,,,,,,3.346311400004197,3.355352899990976,3.355158599995775,3.355158599995775,3.355158599995775,557080,001,2025-10-23_17h01.00.187,run,2024.2.4,None,2025-10-23 17h01.06.624979 +0800,
180,0,180,0,0,0,0,0,0,0,0,180,0,180,0,3.372201499994844,,,,,,,,,,,,,3.3565723999927286,3.3566108999948483,,,,557080,001,2025-10-23_17h01.00.187,run,2024.2.4,None,2025-10-23 17h01.06.624979 +0800,
181,0,181,0,0,0,0,0,0,0,0,181,0,181,0,3.372201499994844,,,,,,,,,,,,,3.357567300001392,3.3576318999985233,,,,557080,001,2025-10-23_17h01.00.187,run,2024.2.4,None,2025-10-23 17h01.06.624979 +0800,
182,0,182,0,0,0,0,0,0,0,0,182,0,182,0,3.372201499994844,,,,,,,,,,,,,3.3582996999903116,3.358331299998099,,,,557080,001,2025-10-23_17h01.00.187,run,2024.2.4,None,2025-10-23 17h01.06.624979 +0800,
183,0,183,0,0,0,0,0,0,0,0,183,0,183,0,3.372201499994844,,,,,,,,,,,,,3.3592772999836598,3.3593026000016835,,,,557080,001,2025-10-23_17h01.00.187,run,2024.2.4,None,2025-10-23 17h01.06.624979 +0800,
184,0,184,0,0,0,0,0,0,0,0,184,0,184,0,3.372201499994844,,,,,,,,,,,,,3.360337599995546,3.360359399986919,,,,557080,001,2025-10-23_17h01.00.187,run,2024.2.4,None,2025-10-23 17h01.06.624979 +0800,
185,0,185,0,0,0,0,0,0,0,0,185,0,185,0,3.372201499994844,,,,,,,,,,,,,3.361478899983922,3.3615175999875646,,,,557080,001,2025-10-23_17h01.00.187,run,2024.2.4,None,2025-10-23 17h01.06.624979 +0800,
186,0,186,0,0,0,0,0,0,0,0,186,0,186,0,3.372201499994844,,,,,,,,,,,,,3.3624428999901284,3.362515099986922,,,,557080,001,2025-10-23_17h01.00.187,run,2024.2.4,None,2025-10-23 17h01.06.624979 +0800,
187,0,187,0,0,0,0,0,0,0,0,187,0,187,0,3.372201499994844,,,,,,,,,,,,,3.363352099986514,3.3633776000060607,,,,557080,001,2025-10-23_17h01.00.187,run,2024.2.4,None,2025-10-23 17h01.06.624979 +0800,
188,0,188,0,0,0,0,0,0,0,0,188,0,188,0,3.372201499994844,,,,,,,,,,,,,3.364259399997536,3.3723568999848794,3.372201499994844,3.372201499994844,3.372201499994844,557080,001,2025-10-23_17h01.00.187,run,2024.2.4,None,2025-10-23 17h01.06.624979 +0800,
189,0,189,0,0,0,0,0,0,0,0,189,0,189,0,3.38828569999896,,,,,,,,,,,,,3.3735079999896698,3.3735450000094716,,,,557080,001,2025-10-23_17h01.00.187,run,2024.2.4,None,2025-10-23 17h01.06.624979 +0800,
190,0,190,0,0,0,0,0,0,0,0,190,0,190,0,3.38828569999896,,,,,,,,,,,,,3.3744019999867305,3.3744421000010334,,,,557080,001,2025-10-23_17h01.00.187,run,2024.2.4,None,2025-10-23 17h01.06.624979 +0800,
191,0,191,0,0,0,0,0,0,0,0,191,0,191,0,3.38828569999896,,,,,,,,,,,,,3.3752304000081494,3.3752552999940235,,,,557080,001,2025-10-23_17h01.00.187,run,2024.2.4,None,2025-10-23 17h01.06.624979 +0800,
192,0,192,0,0,0,0,0,0,0,0,192,0,192,0,3.38828569999896,,,,,,,,,,,,,3.376192700001411,3.3762141999904998,,,,557080,001,2025-10-23_17h01.00.187,run,2024.2.4,None,2025-10-23 17h01.06.624979 +0800,
193,0,193,0,0,0,0,0,0,0,0,193,0,193,0,3.38828569999896,,,,,,,,,,,,,3.3772813999967184,3.377309800009243,,,,557080,001,2025-10-23_17h01.00.187,run,2024.2.4,None,2025-10-23 17h01.06.624979 +0800,
194,0,194,0,0,0,0,0,0,0,0,194,0,194,0,3.38828569999896,,,,,,,,,,,,,3.3782797000021674,3.378305599995656,,,,557080,001,2025-10-23_17h01.00.187,run,2024.2.4,None,2025-10-23 17h01.06.624979 +0800,
195,0,195,0,0,0,0,0,0,0,0,195,0,195,0,3.38828569999896,,,,,,,,,,,,,3.3793042000033893,3.379334800003562,,,,557080,001,2025-10-23_17h01.00.187,run,2024.2.4,None,2025-10-23 17h01.06.624979 +0800,
196,0,196,0,0,0,0,0,0,0,0,196,0,196,0,3.38828569999896,,,,,,,,,,,,,3.3802231999870855,3.3884436000080314,3.38828569999896,3.38828569999896,3.38828569999896,557080,001,2025-10-23_17h01.00.187,run,2024.2.4,None,2025-10-23 17h01.06.624979 +0800,
197,0,197,0,0,0,0,0,0,0,0,197,0,197,0,3.400587699987227,,,,,,,,,,,,,3.389524199999869,3.3895932000014,,,,557080,001,2025-10-23_17h01.00.187,run,2024.2.4,None,2025-10-23 17h01.06.624979 +0800,
198,0,198,0,0,0,0,0,0,0,0,198,0,198,0,3.400587699987227,,,,,,,,,,,,,3.390422900003614,3.390459699992789,,,,557080,001,2025-10-23_17h01.00.187,run,2024.2.4,None,2025-10-23 17h01.06.624979 +0800,
199,0,199,0,0,0,0,0,0,0,0,199,0,199,0,3.400587699987227,,,,,,,,,,,,,3.39131589999306,3.3913482000061776,,,,557080,001,2025-10-23_17h01.00.187,run,2024.2.4,None,2025-10-23 17h01.06.624979 +0800,
200,0,200,0,0,0,0,0,0,0,0,200,0,200,0,3.400587699987227,,,,,,,,,,,,,3.39228179998463,3.3923135999939404,,,,557080,001,2025-10-23_17h01.00.187,run,2024.2.4,None,2025-10-23 17h01.06.624979 +0800,
201,0,201,0,0,0,0,0,0,0,0,201,0,201,0,3.400587699987227,,,,,,,,,,,,,3.3933311000000685,3.393358300003456,,,,557080,001,2025-10-23_17h01.00.187,run,2024.2.4,None,2025-10-23 17h01.06.624979 +0800,
202,0,202,0,0,0,0,0,0,0,0,202,0,202,0,3.400587699987227,,,,,,,,,,,,,3.394258999993326,3.394300599989947,,,,557080,001,2025-10-23_17h01.00.187,run,2024.2.4,None,2025-10-23 17h01.06.624979 +0800,
203,0,203,0,0,0,0,0,0,0,0,203,0,203,0,3.400587699987227,,,,,,,,,,,,,3.3954872000031173,3.395515299984254,,,,557080,001,2025-10-23_17h01.00.187,run,2024.2.4,None,2025-10-23 17h01.06.624979 +0800,
204,0,204,0,0,0,0,0,0,0,0,204,0,204,0,3.400587699987227,,,,,,,,,,,,,3.396182600001339,3.400752299989108,3.400587699987227,3.400587699987227,3.400587699987227,557080,001,2025-10-23_17h01.00.187,run,2024.2.4,None,2025-10-23 17h01.06.624979 +0800,
205,0,205,0,0,0,0,0,0,0,0,205,0,205,0,3.414507200010121,,,,,,,,,,,,,3.4013301999948453,3.4013589000096545,,,,557080,001,2025-10-23_17h01.00.187,run,2024.2.4,None,2025-10-23 17h01.06.624979 +0800,
206,0,206,0,0,0,0,0,0,0,0,206,0,206,0,3.414507200010121,,,,,,,,,,,,,3.4023715000075754,3.4024082999967504,,,,557080,001,2025-10-23_17h01.00.187,run,2024.2.4,None,2025-10-23 17h01.06.624979 +0800,
207,0,207,0,0,0,0,0,0,0,0,207,0,207,0,3.414507200010121,,,,,,,,,,,,,3.4035628999990877,3.403623299993342,,,,557080,001,2025-10-23_17h01.00.187,run,2024.2.4,None,2025-10-23 17h01.06.624979 +0800,
208,0,208,0,0,0,0,0,0,0,0,208,0,208,0,3.414507200010121,,,,,,,,,,,,,3.4045718999987002,3.414651600003708,3.414507200010121,3.414507200010121,3.414507200010121,557080,001,2025-10-23_17h01.00.187,run,2024.2.4,None,2025-10-23 17h01.06.624979 +0800,
209,0,209,0,0,0,0,0,0,0,0,209,0,209,0,3.5015103000041563,,,,,,,,,,,,,3.4154968000075314,3.4155385000049137,,,,557080,001,2025-10-23_17h01.00.187,run,2024.2.4,None,2025-10-23 17h01.06.624979 +0800,
210,0,210,0,0,0,0,0,0,0,0,210,0,210,0,3.5015103000041563,,,,,,,,,,,,,3.4164896000002045,3.4165216999826953,,,,557080,001,2025-10-23_17h01.00.187,run,2024.2.4,None,2025-10-23 17h01.06.624979 +0800,
211,0,211,0,0,0,0,0,0,0,0,211,0,211,0,3.5015103000041563,,,,,,,,,,,,,3.417196199996397,3.417224200005876,,,,557080,001,2025-10-23_17h01.00.187,run,2024.2.4,None,2025-10-23 17h01.06.624979 +0800,
212,0,212,0,0,0,0,0,0,0,0,212,0,212,0,3.5015103000041563,,,,,,,,,,,,,3.4185359999828506,3.4185646999976598,,,,557080,001,2025-10-23_17h01.00.187,run,2024.2.4,None,2025-10-23 17h01.06.624979 +0800,
213,0,213,0,0,0,0,0,0,0,0,213,0,213,0,3.5015103000041563,,,,,,,,,,,,,3.4197799999965355,3.419838500005426,,,,557080,001,2025-10-23_17h01.00.187,run,2024.2.4,None,2025-10-23 17h01.06.624979 +0800,
214,0,214,0,0,0,0,0,0,0,0,214,0,214,0,3.5015103000041563,,,,,,,,,,,,,3.456755899998825,3.4567925999872386,,,,557080,001,2025-10-23_17h01.00.187,run,2024.2.4,None,2025-10-23 17h01.06.624979 +0800,
215,0,215,0,0,0,0,0,0,0,0,215,0,215,0,3.5015103000041563,,,,,,,,,,,,,3.457431799994083,3.457464000006439,,,,557080,001,2025-10-23_17h01.00.187,run,2024.2.4,None,2025-10-23 17h01.06.624979 +0800,
216,0,216,0,0,0,0,0,0,0,0,216,0,216,0,3.5015103000041563,,,,,,,,,,,,,3.45840929998667,3.4584356999839656,,,,557080,001,2025-10-23_17h01.00.187,run,2024.2.4,None,2025-10-23 17h01.06.624979 +0800,
217,0,217,0,0,0,0,0,0,0,0,217,0,217,0,3.5015103000041563,,,,,,,,,,,,,3.4593303999863565,3.459364399983315,,,,557080,001,2025-10-23_17h01.00.187,run,2024.2.4,None,2025-10-23 17h01.06.624979 +0800,
218,0,218,0,0,0,0,0,0,0,0,218,0,218,0,3.5015103000041563,,,,,,,,,,,,,3.460306099994341,3.46032969999942,,,,557080,001,2025-10-23_17h01.00.187,run,2024.2.4,None,2025-10-23 17h01.06.624979 +0800,
219,0,219,0,0,0,0,0,0,0,0,219,0,219,0,3.5015103000041563,,,,,,,,,,,,,3.4612379999889527,3.4612643999862485,,,,557080,001,2025-10-23_17h01.00.187,run,2024.2.4,None,2025-10-23 17h01.06.624979 +0800,
220,0,220,0,0,0,0,0,0,0,0,220,0,220,0,3.5015103000041563,,,,,,,,,,,,,3.46251559999655,3.4625505000003614,,,,557080,001,2025-10-23_17h01.00.187,run,2024.2.4,None,2025-10-23 17h01.06.624979 +0800,
221,0,221,0,0,0,0,0,0,0,0,221,0,221,0,3.5015103000041563,,,,,,,,,,,,,3.463382799993269,3.4634113000065554,,,,557080,001,2025-10-23_17h01.00.187,run,2024.2.4,None,2025-10-23 17h01.06.624979 +0800,
222,0,222,0,0,0,0,0,0,0,0,222,0,222,0,3.5015103000041563,,,,,,,,,,,,,3.464303899992956,3.4643327000085264,,,,557080,001,2025-10-23_17h01.00.187,run,2024.2.4,None,2025-10-23 17h01.06.624979 +0800,
223,0,223,0,0,0,0,0,0,0,0,223,0,223,0,3.5015103000041563,,,,,,,,,,,,,3.4654569999838714,3.465490200003842,,,,557080,001,2025-10-23_17h01.00.187,run,2024.2.4,None,2025-10-23 17h01.06.624979 +0800,
224,0,224,0,0,0,0,0,0,0,0,224,0,224,0,3.5015103000041563,,,,,,,,,,,,,3.466333599993959,3.4663607999973465,,,,557080,001,2025-10-23_17h01.00.187,run,2024.2.4,None,2025-10-23 17h01.06.624979 +0800,
225,0,225,0,0,0,0,0,0,0,0,225,0,225,0,3.5015103000041563,,,,,,,,,,,,,3.4671809999854304,3.4672080999880563,,,,557080,001,2025-10-23_17h01.00.187,run,2024.2.4,None,2025-10-23 17h01.06.624979 +0800,
226,0,226,0,0,0,0,0,0,0,0,226,0,226,0,3.5015103000041563,,,,,,,,,,,,,3.4683046999853104,3.4683322999917436,,,,557080,001,2025-10-23_17h01.00.187,run,2024.2.4,None,2025-10-23 17h01.06.624979 +0800,
227,0,227,0,0,0,0,0,0,0,0,227,0,227,0,3.5015103000041563,,,,,,,,,,,,,3.46962769998936,3.469661399984034,,,,557080,001,2025-10-23_17h01.00.187,run,2024.2.4,None,2025-10-23 17h01.06.624979 +0800,
228,0,228,0,0,0,0,0,0,0,0,228,0,228,0,3.5015103000041563,,,,,,,,,,,,,3.4701928999857046,3.4702236999874003,,,,557080,001,2025-10-23_17h01.00.187,run,2024.2.4,None,2025-10-23 17h01.06.624979 +0800,
229,0,229,0,0,0,0,0,0,0,0,229,0,229,0,3.5015103000041563,,,,,,,,,,,,,3.471300000004703,3.47132809998584,,,,557080,001,2025-10-23_17h01.00.187,run,2024.2.4,None,2025-10-23 17h01.06.624979 +0800,
230,0,230,0,0,0,0,0,0,0,0,230,0,230,0,3.5015103000041563,,,,,,,,,,,,,3.47233970000525,3.4723660000017844,,,,557080,001,2025-10-23_17h01.00.187,run,2024.2.4,None,2025-10-23 17h01.06.624979 +0800,
231,0,231,0,0,0,0,0,0,0,0,231,0,231,0,3.5015103000041563,,,,,,,,,,,,,3.4733895999961533,3.473421300004702,,,,557080,001,2025-10-23_17h01.00.187,run,2024.2.4,None,2025-10-23 17h01.06.624979 +0800,
232,0,232,0,0,0,0,0,0,0,0,232,0,232,0,3.5015103000041563,,,,,,,,,,,,,3.474416899989592,3.4744440999929793,,,,557080,001,2025-10-23_17h01.00.187,run,2024.2.4,None,2025-10-23 17h01.06.624979 +0800,
233,0,233,0,0,0,0,0,0,0,0,233,0,233,0,3.5015103000041563,,,,,,,,,,,,,3.4752796000102535,3.475306400010595,,,,557080,001,2025-10-23_17h01.00.187,run,2024.2.4,None,2025-10-23 17h01.06.624979 +0800,
234,0,234,0,0,0,0,0,0,0,0,234,0,234,0,3.5015103000041563,,,,,,,,,,,,,3.4762953000026755,3.4763268000097014,,,,557080,001,2025-10-23_17h01.00.187,run,2024.2.4,None,2025-10-23 17h01.06.624979 +0800,
235,0,235,0,0,0,0,0,0,0,0,235,0,235,0,3.5015103000041563,,,,,,,,,,,,,3.477343100006692,3.477375899994513,,,,557080,001,2025-10-23_17h01.00.187,run,2024.2.4,None,2025-10-23 17h01.06.624979 +0800,
236,0,236,0,0,0,0,0,0,0,0,236,0,236,0,3.5015103000041563,,,,,,,,,,,,,3.478357399988454,3.478396899998188,,,,557080,001,2025-10-23_17h01.00.187,run,2024.2.4,None,2025-10-23 17h01.06.624979 +0800,
237,0,237,0,0,0,0,0,0,0,0,237,0,237,0,3.5015103000041563,,,,,,,,,,,,,3.479546099988511,3.479580499988515,,,,557080,001,2025-10-23_17h01.00.187,run,2024.2.4,None,2025-10-23 17h01.06.624979 +0800,
238,0,238,0,0,0,0,0,0,0,0,238,0,238,0,3.5015103000041563,,,,,,,,,,,,,3.480367499985732,3.48039680000511,,,,557080,001,2025-10-23_17h01.00.187,run,2024.2.4,None,2025-10-23 17h01.06.624979 +0800,
239,0,239,0,0,0,0,0,0,0,0,239,0,239,0,3.5015103000041563,,,,,,,,,,,,,3.4814050999993924,3.481430799991358,,,,557080,001,2025-10-23_17h01.00.187,run,2024.2.4,None,2025-10-23 17h01.06.624979 +0800,
240,0,240,0,0,0,0,0,0,0,0,240,0,240,0,3.5015103000041563,,,,,,,,,,,,,3.4825265999825206,3.4825685000105295,,,,557080,001,2025-10-23_17h01.00.187,run,2024.2.4,None,2025-10-23 17h01.06.624979 +0800,
241,0,241,0,0,0,0,0,0,0,0,241,0,241,0,3.5015103000041563,,,,,,,,,,,,,3.483138499985216,3.483162899996387,,,,557080,001,2025-10-23_17h01.00.187,run,2024.2.4,None,2025-10-23 17h01.06.624979 +0800,
242,0,242,0,0,0,0,0,0,0,0,242,0,242,0,3.5015103000041563,,,,,,,,,,,,,3.4843139000004157,3.484364400006598,,,,557080,001,2025-10-23_17h01.00.187,run,2024.2.4,None,2025-10-23 17h01.06.624979 +0800,
243,0,243,0,0,0,0,0,0,0,0,243,0,243,0,3.5015103000041563,,,,,,,,,,,,,3.4853220999939367,3.48534459999064,,,,557080,001,2025-10-23_17h01.00.187,run,2024.2.4,None,2025-10-23 17h01.06.624979 +0800,
244,0,244,0,0,0,0,0,0,0,0,244,0,244,0,3.5015103000041563,,,,,,,,,,,,,3.4863748000061605,3.486409300006926,,,,557080,001,2025-10-23_17h01.00.187,run,2024.2.4,None,2025-10-23 17h01.06.624979 +0800,
245,0,245,0,0,0,0,0,0,0,0,245,0,245,0,3.5015103000041563,,,,,,,,,,,,,3.487352900003316,3.487394099996891,,,,557080,001,2025-10-23_17h01.00.187,run,2024.2.4,None,2025-10-23 17h01.06.624979 +0800,
246,0,246,0,0,0,0,0,0,0,0,246,0,246,0,3.5015103000041563,,,,,,,,,,,,,3.4882913999899756,3.488316900009522,,,,557080,001,2025-10-23_17h01.00.187,run,2024.2.4,None,2025-10-23 17h01.06.624979 +0800,
247,0,247,0,0,0,0,0,0,0,0,247,0,247,0,3.5015103000041563,,,,,,,,,,,,,3.4893585999961942,3.489386300003389,,,,557080,001,2025-10-23_17h01.00.187,run,2024.2.4,None,2025-10-23 17h01.06.624979 +0800,
248,0,248,0,0,0,0,0,0,0,0,248,0,248,0,3.5015103000041563,,,,,,,,,,,,,3.490782599983504,3.490810799994506,,,,557080,001,2025-10-23_17h01.00.187,run,2024.2.4,None,2025-10-23 17h01.06.624979 +0800,
249,0,249,0,0,0,0,0,0,0,0,249,0,249,0,3.5015103000041563,,,,,,,,,,,,,3.4911804999865126,3.491208799998276,,,,557080,001,2025-10-23_17h01.00.187,run,2024.2.4,None,2025-10-23 17h01.06.624979 +0800,
250,0,250,0,0,0,0,0,0,0,0,250,0,250,0,3.5015103000041563,,,,,,,,,,,,,3.4923312999890186,3.492361999989953,,,,557080,001,2025-10-23_17h01.00.187,run,2024.2.4,None,2025-10-23 17h01.06.624979 +0800,
251,0,251,0,0,0,0,0,0,0,0,251,0,251,0,3.5015103000041563,,,,,,,,,,,,,3.493288500001654,3.4933138999913353,,,,557080,001,2025-10-23_17h01.00.187,run,2024.2.4,None,2025-10-23 17h01.06.624979 +0800,
252,0,252,0,0,0,0,0,0,0,0,252,0,252,0,3.5015103000041563,,,,,,,,,,,,,3.4941848999878857,3.4942142000072636,,,,557080,001,2025-10-23_17h01.00.187,run,2024.2.4,None,2025-10-23 17h01.06.624979 +0800,
253,0,253,0,0,0,0,0,0,0,0,253,0,253,0,3.5015103000041563,,,,,,,,,,,,,3.495294099993771,3.4953252999985125,,,,557080,001,2025-10-23_17h01.00.187,run,2024.2.4,None,2025-10-23 17h01.06.624979 +0800,
254,0,254,0,0,0,0,0,0,0,0,254,0,254,0,3.5015103000041563,,,,,,,,,,,,,3.49635830000625,3.5018498999997973,3.5015103000041563,3.5015103000041563,3.5015103000041563,557080,001,2025-10-23_17h01.00.187,run,2024.2.4,None,2025-10-23 17h01.06.624979 +0800,
255,0,255,0,0,0,0,0,0,0,0,255,0,255,0,3.5145945999829564,,,,,,,,,,,,,3.502393500006292,3.5024275000032503,,,,557080,001,2025-10-23_17h01.00.187,run,2024.2.4,None,2025-10-23 17h01.06.624979 +0800,
256,0,256,0,0,0,0,0,0,0,0,256,0,256,0,3.5145945999829564,,,,,,,,,,,,,3.5037946999946143,3.503845300001558,,,,557080,001,2025-10-23_17h01.00.187,run,2024.2.4,None,2025-10-23 17h01.06.624979 +0800,
257,0,257,0,0,0,0,0,0,0,0,257,0,257,0,3.5145945999829564,,,,,,,,,,,,,3.5042991999944206,3.5043326999875717,,,,557080,001,2025-10-23_17h01.00.187,run,2024.2.4,None,2025-10-23 17h01.06.624979 +0800,
258,0,258,0,0,0,0,0,0,0,0,258,0,258,0,3.5145945999829564,,,,,,,,,,,,,3.5053265999886207,3.5053545999980997,,,,557080,001,2025-10-23_17h01.00.187,run,2024.2.4,None,2025-10-23 17h01.06.624979 +0800,
259,0,259,0,0,0,0,0,0,0,0,259,0,259,0,3.5145945999829564,,,,,,,,,,,,,3.506558599998243,3.5150511999963783,3.5145945999829564,3.5145945999829564,3.5145945999829564,557080,001,2025-10-23_17h01.00.187,run,2024.2.4,None,2025-10-23 17h01.06.624979 +0800,
260,0,260,0,0,0,0,0,0,0,0,260,0,260,0,3.52978029998485,,,,,,,,,,,,,3.5165180999902077,3.516557800001465,,,,557080,001,2025-10-23_17h01.00.187,run,2024.2.4,None,2025-10-23 17h01.06.624979 +0800,
261,0,261,0,0,0,0,0,0,0,0,261,0,261,0,3.52978029998485,,,,,,,,,,,,,3.5172904999926686,3.5173233000095934,,,,557080,001,2025-10-23_17h01.00.187,run,2024.2.4,None,2025-10-23 17h01.06.624979 +0800,
262,0,262,0,0,0,0,0,0,0,0,262,0,262,0,3.52978029998485,,,,,,,,,,,,,3.5184092999843415,3.518441399995936,,,,557080,001,2025-10-23_17h01.00.187,run,2024.2.4,None,2025-10-23 17h01.06.624979 +0800,
263,0,263,0,0,0,0,0,0,0,0,263,0,263,0,3.52978029998485,,,,,,,,,,,,,3.5194655999948736,3.519519900000887,,,,557080,001,2025-10-23_17h01.00.187,run,2024.2.4,None,2025-10-23 17h01.06.624979 +0800,
264,0,264,0,0,0,0,0,0,0,0,264,0,264,0,3.52978029998485,,,,,,,,,,,,,3.520456500002183,3.5204870000015944,,,,557080,001,2025-10-23_17h01.00.187,run,2024.2.4,None,2025-10-23 17h01.06.624979 +0800,
265,0,265,0,0,0,0,0,0,0,0,265,0,265,0,3.52978029998485,,,,,,,,,,,,,3.521323900000425,3.5213561999844387,,,,557080,001,2025-10-23_17h01.00.187,run,2024.2.4,None,2025-10-23 17h01.06.624979 +0800,
266,0,266,0,0,0,0,0,0,0,0,266,0,266,0,3.52978029998485,,,,,,,,,,,,,3.5223349999869242,3.5223707999975886,,,,557080,001,2025-10-23_17h01.00.187,run,2024.2.4,None,2025-10-23 17h01.06.624979 +0800,
267,0,267,0,0,0,0,0,0,0,0,267,0,267,0,3.52978029998485,,,,,,,,,,,,,3.5232768999994732,3.52330569998594,,,,557080,001,2025-10-23_17h01.00.187,run,2024.2.4,None,2025-10-23 17h01.06.624979 +0800,
268,0,268,0,0,0,0,0,0,0,0,268,0,268,0,3.52978029998485,,,,,,,,,,,,,3.5243473000009544,3.5300242000084836,3.52978029998485,3.52978029998485,3.52978029998485,557080,001,2025-10-23_17h01.00.187,run,2024.2.4,None,2025-10-23 17h01.06.624979 +0800,
269,0,269,0,0,0,0,0,0,0,0,269,0,269,0,3.5425127999915276,,,,,,,,,,,,,3.531633200007491,3.531673799996497,,,,557080,001,2025-10-23_17h01.00.187,run,2024.2.4,None,2025-10-23 17h01.06.624979 +0800,
270,0,270,0,0,0,0,0,0,0,0,270,0,270,0,3.5425127999915276,,,,,,,,,,,,,3.5323563999845646,3.5323917999921832,,,,557080,001,2025-10-23_17h01.00.187,run,2024.2.4,None,2025-10-23 17h01.06.624979 +0800,
271,0,271,0,0,0,0,0,0,0,0,271,0,271,0,3.5425127999915276,,,,,,,,,,,,,3.5333054999937303,3.5333487000025343,,,,557080,001,2025-10-23_17h01.00.187,run,2024.2.4,None,2025-10-23 17h01.06.624979 +0800,
272,0,272,0,0,0,0,0,0,0,0,272,0,272,0,3.5425127999915276,,,,,,,,,,,,,3.534330800001044,3.534354600007646,,,,557080,001,2025-10-23_17h01.00.187,run,2024.2.4,None,2025-10-23 17h01.06.624979 +0800,
273,0,273,0,0,0,0,0,0,0,0,273,0,273,0,3.5425127999915276,,,,,,,,,,,,,3.535343199997442,3.535370600002352,,,,557080,001,2025-10-23_17h01.00.187,run,2024.2.4,None,2025-10-23 17h01.06.624979 +0800,
274,0,274,0,0,0,0,0,0,0,0,274,0,274,0,3.5425127999915276,,,,,,,,,,,,,3.5363374000007752,3.5427379999891855,3.5425127999915276,3.5425127999915276,3.5425127999915276,557080,001,2025-10-23_17h01.00.187,run,2024.2.4,None,2025-10-23 17h01.06.624979 +0800,
275,0,275,0,0,0,0,0,0,0,0,275,0,275,0,3.556646599987289,,,,,,,,,,,,,3.543444599985378,3.543491799995536,,,,557080,001,2025-10-23_17h01.00.187,run,2024.2.4,None,2025-10-23 17h01.06.624979 +0800,
276,0,276,0,0,0,0,0,0,0,0,276,0,276,0,3.556646599987289,,,,,,,,,,,,,3.544622099987464,3.544713299983414,,,,557080,001,2025-10-23_17h01.00.187,run,2024.2.4,None,2025-10-23 17h01.06.624979 +0800,
277,0,277,0,0,0,0,0,0,0,0,277,0,277,0,3.556646599987289,,,,,,,,,,,,,3.545525599998655,3.5455756000010297,,,,557080,001,2025-10-23_17h01.00.187,run,2024.2.4,None,2025-10-23 17h01.06.624979 +0800,
278,0,278,0,0,0,0,0,0,0,0,278,0,278,0,3.556646599987289,,,,,,,,,,,,,3.5463703999994323,3.5464157999958843,,,,557080,001,2025-10-23_17h01.00.187,run,2024.2.4,None,2025-10-23 17h01.06.624979 +0800,
279,0,279,0,0,0,0,0,0,0,0,279,0,279,0,3.556646599987289,,,,,,,,,,,,,3.5473377000016626,3.547374799993122,,,,557080,001,2025-10-23_17h01.00.187,run,2024.2.4,None,2025-10-23 17h01.06.624979 +0800,
280,0,280,0,0,0,0,0,0,0,0,280,0,280,0,3.556646599987289,,,,,,,,,,,,,3.548483099992154,3.556841899990104,3.556646599987289,3.556646599987289,3.556646599987289,557080,001,2025-10-23_17h01.00.187,run,2024.2.4,None,2025-10-23 17h01.06.624979 +0800,
281,0,281,0,0,0,0,0,0,0,0,281,0,281,0,3.571813199989265,,,,,,,,,,,,,3.5573968999960925,3.557439800002612,,,,557080,001,2025-10-23_17h01.00.187,run,2024.2.4,None,2025-10-23 17h01.06.624979 +0800,
282,0,282,0,0,0,0,0,0,0,0,282,0,282,0,3.571813199989265,,,,,,,,,,,,,3.558396200009156,3.5584365999966394,,,,557080,001,2025-10-23_17h01.00.187,run,2024.2.4,None,2025-10-23 17h01.06.624979 +0800,
283,0,283,0,0,0,0,0,0,0,0,283,0,283,0,3.571813199989265,,,,,,,,,,,,,3.559253399987938,3.5592902000062168,,,,557080,001,2025-10-23_17h01.00.187,run,2024.2.4,None,2025-10-23 17h01.06.624979 +0800,
284,0,284,0,0,0,0,0,0,0,0,284,0,284,0,3.571813199989265,,,,,,,,,,,,,3.56029649998527,3.560333300003549,,,,557080,001,2025-10-23_17h01.00.187,run,2024.2.4,None,2025-10-23 17h01.06.624979 +0800,
285,0,285,0,0,0,0,0,0,0,0,285,0,285,0,3.571813199989265,,,,,,,,,,,,,3.561491800006479,3.5615488000039477,,,,557080,001,2025-10-23_17h01.00.187,run,2024.2.4,None,2025-10-23 17h01.06.624979 +0800,
286,0,286,0,0,0,0,0,0,0,0,286,0,286,0,3.571813199989265,,,,,,,,,,,,,3.5622795000090264,3.5623158999951556,,,,557080,001,2025-10-23_17h01.00.187,run,2024.2.4,None,2025-10-23 17h01.06.624979 +0800,
287,0,287,0,0,0,0,0,0,0,0,287,0,287,0,3.571813199989265,,,,,,,,,,,,,3.563287400000263,3.563319599983515,,,,557080,001,2025-10-23_17h01.00.187,run,2024.2.4,None,2025-10-23 17h01.06.624979 +0800,
288,0,288,0,0,0,0,0,0,0,0,288,0,288,0,3.571813199989265,,,,,,,,,,,,,3.56429159999243,3.572080799989635,3.571813199989265,3.571813199989265,3.571813199989265,557080,001,2025-10-23_17h01.00.187,run,2024.2.4,None,2025-10-23 17h01.06.624979 +0800,
289,0,289,0,0,0,0,0,0,0,0,289,0,289,0,3.5923640999826603,,,,,,,,,,,,,3.5735787999874447,3.5736352000094485,,,,557080,001,2025-10-23_17h01.00.187,run,2024.2.4,None,2025-10-23 17h01.06.624979 +0800,
290,0,290,0,0,0,0,0,0,0,0,290,0,290,0,3.5923640999826603,,,,,,,,,,,,,3.5748349000059534,3.5749056999920867,,,,557080,001,2025-10-23_17h01.00.187,run,2024.2.4,None,2025-10-23 17h01.06.624979 +0800,
291,0,291,0,0,0,0,0,0,0,0,291,0,291,0,3.5923640999826603,,,,,,,,,,,,,3.576335599995218,3.576375000004191,,,,557080,001,2025-10-23_17h01.00.187,run,2024.2.4,None,2025-10-23 17h01.06.624979 +0800,
292,0,292,0,0,0,0,0,0,0,0,292,0,292,0,3.5923640999826603,,,,,,,,,,,,,3.577230299997609,3.577265500003705,,,,557080,001,2025-10-23_17h01.00.187,run,2024.2.4,None,2025-10-23 17h01.06.624979 +0800,
293,0,293,0,0,0,0,0,0,0,0,293,0,293,0,3.5923640999826603,,,,,,,,,,,,,3.578803099982906,3.578861499991035,,,,557080,001,2025-10-23_17h01.00.187,run,2024.2.4,None,2025-10-23 17h01.06.624979 +0800,
294,0,294,0,0,0,0,0,0,0,0,294,0,294,0,3.5923640999826603,,,,,,,,,,,,,3.580662799999118,3.5807186999882106,,,,557080,001,2025-10-23_17h01.00.187,run,2024.2.4,None,2025-10-23 17h01.06.624979 +0800,
295,0,295,0,0,0,0,0,0,0,0,295,0,295,0,3.5923640999826603,,,,,,,,,,,,,3.5818130999978166,3.5818578999897,,,,557080,001,2025-10-23_17h01.00.187,run,2024.2.4,None,2025-10-23 17h01.06.624979 +0800,
296,0,296,0,0,0,0,0,0,0,0,296,0,296,0,3.5923640999826603,,,,,,,,,,,,,3.5822980999946594,3.5823374000028707,,,,557080,001,2025-10-23_17h01.00.187,run,2024.2.4,None,2025-10-23 17h01.06.624979 +0800,
297,0,297,0,0,0,0,0,0,0,0,297,0,297,0,3.5923640999826603,,,,,,,,,,,,,3.5835733999847434,3.5836170999973547,,,,557080,001,2025-10-23_17h01.00.187,run,2024.2.4,None,2025-10-23 17h01.06.624979 +0800,
298,0,298,0,0,0,0,0,0,0,0,298,0,298,0,3.5923640999826603,,,,,,,,,,,,,3.5845644999935757,3.5928646000102162,3.5923640999826603,3.5923640999826603,3.5923640999826603,557080,001,2025-10-23_17h01.00.187,run,2024.2.4,None,2025-10-23 17h01.06.624979 +0800,
299,0,299,0,0,0,0,0,0,0,0,299,0,299,0,3.6065433000039775,,,,,,,,,,,,,3.593738099996699,3.593778000009479,,,,557080,001,2025-10-23_17h01.00.187,run,2024.2.4,None,2025-10-23 17h01.06.624979 +0800,
300,0,300,0,0,0,0,0,0,0,0,300,0,300,0,3.6065433000039775,,,,,,,,,,,,,3.5944030999962706,3.5944547000108287,,,,557080,001,2025-10-23_17h01.00.187,run,2024.2.4,None,2025-10-23 17h01.06.624979 +0800,
301,0,301,0,0,0,0,0,0,0,0,301,0,301,0,3.6065433000039775,,,,,,,,,,,,,3.595390500006033,3.595423099992331,,,,557080,001,2025-10-23_17h01.00.187,run,2024.2.4,None,2025-10-23 17h01.06.624979 +0800,
302,0,302,0,0,0,0,0,0,0,0,302,0,302,0,3.6065433000039775,,,,,,,,,,,,,3.5964135999965947,3.5964532000070903,,,,557080,001,2025-10-23_17h01.00.187,run,2024.2.4,None,2025-10-23 17h01.06.624979 +0800,
303,0,303,0,0,0,0,0,0,0,0,303,0,303,0,3.6065433000039775,,,,,,,,,,,,,3.5972083999949973,3.5972352999961004,,,,557080,001,2025-10-23_17h01.00.187,run,2024.2.4,None,2025-10-23 17h01.06.624979 +0800,
304,0,304,0,0,0,0,0,0,0,0,304,0,304,0,3.6065433000039775,,,,,,,,,,,,,3.5987231000035536,3.598779399995692,,,,557080,001,2025-10-23_17h01.00.187,run,2024.2.4,None,2025-10-23 17h01.06.624979 +0800,
305,0,305,0,0,0,0,0,0,0,0,305,0,305,0,3.6065433000039775,,,,,,,,,,,,,3.599281200004043,3.5993262999982107,,,,557080,001,2025-10-23_17h01.00.187,run,2024.2.4,None,2025-10-23 17h01.06.624979 +0800,
306,0,306,0,0,0,0,0,0,0,0,306,0,306,0,3.6065433000039775,,,,,,,,,,,,,3.6002324000000954,3.606874599994626,3.6065433000039775,3.6065433000039775,3.6065433000039775,557080,001,2025-10-23_17h01.00.187,run,2024.2.4,None,2025-10-23 17h01.06.624979 +0800,
307,0,307,0,0,0,0,0,0,0,0,307,0,307,0,3.6219859999837354,,,,,,,,,,,,,3.6087919999845326,3.608840400003828,,,,557080,001,2025-10-23_17h01.00.187,run,2024.2.4,None,2025-10-23 17h01.06.624979 +0800,
308,0,308,0,0,0,0,0,0,0,0,308,0,308,0,3.6219859999837354,,,,,,,,,,,,,3.609393099992303,3.609438199986471,,,,557080,001,2025-10-23_17h01.00.187,run,2024.2.4,None,2025-10-23 17h01.06.624979 +0800,
309,0,309,0,0,0,0,0,0,0,0,309,0,309,0,3.6219859999837354,,,,,,,,,,,,,3.6103400999854784,3.610367999994196,,,,557080,001,2025-10-23_17h01.00.187,run,2024.2.4,None,2025-10-23 17h01.06.624979 +0800,
310,0,310,0,0,0,0,0,0,0,0,310,0,310,0,3.6219859999837354,,,,,,,,,,,,,3.6115504000044893,3.611601599986898,,,,557080,001,2025-10-23_17h01.00.187,run,2024.2.4,None,2025-10-23 17h01.06.624979 +0800,
311,0,311,0,0,0,0,0,0,0,0,311,0,311,0,3.6219859999837354,,,,,,,,,,,,,3.612417900003493,3.612451399996644,,,,557080,001,2025-10-23_17h01.00.187,run,2024.2.4,None,2025-10-23 17h01.06.624979 +0800,
312,0,312,0,0,0,0,0,0,0,0,312,0,312,0,3.6219859999837354,,,,,,,,,,,,,3.6132106999866664,3.6132421999936923,,,,557080,001,2025-10-23_17h01.00.187,run,2024.2.4,None,2025-10-23 17h01.06.624979 +0800,
313,0,313,0,0,0,0,0,0,0,0,313,0,313,0,3.6219859999837354,,,,,,,,,,,,,3.6143163999950048,3.6221449000004213,3.6219859999837354,3.6219859999837354,3.6219859999837354,557080,001,2025-10-23_17h01.00.187,run,2024.2.4,None,2025-10-23 17h01.06.624979 +0800,
314,0,314,0,0,0,0,0,0,0,0,314,0,314,0,3.6344416000065394,,,,,,,,,,,,,3.62379320000764,3.623832399985986,,,,557080,001,2025-10-23_17h01.00.187,run,2024.2.4,None,2025-10-23 17h01.06.624979 +0800,
315,0,315,0,0,0,0,0,0,0,0,315,0,315,0,3.6344416000065394,,,,,,,,,,,,,3.6246874000062235,3.6247257000068203,,,,557080,001,2025-10-23_17h01.00.187,run,2024.2.4,None,2025-10-23 17h01.06.624979 +0800,
316,0,316,0,0,0,0,0,0,0,0,316,0,316,0,3.6344416000065394,,,,,,,,,,,,,3.625354099989636,3.625386300001992,,,,557080,001,2025-10-23_17h01.00.187,run,2024.2.4,None,2025-10-23 17h01.06.624979 +0800,
317,0,317,0,0,0,0,0,0,0,0,317,0,317,0,3.6344416000065394,,,,,,,,,,,,,3.626350500009721,3.6263894999865443,,,,557080,001,2025-10-23_17h01.00.187,run,2024.2.4,None,2025-10-23 17h01.06.624979 +0800,
318,0,318,0,0,0,0,0,0,0,0,318,0,318,0,3.6344416000065394,,,,,,,,,,,,,3.6273518000089098,3.627403399994364,,,,557080,001,2025-10-23_17h01.00.187,run,2024.2.4,None,2025-10-23 17h01.06.624979 +0800,
319,0,319,0,0,0,0,0,0,0,0,319,0,319,0,3.6344416000065394,,,,,,,,,,,,,3.628335099987453,3.6283623999916017,,,,557080,001,2025-10-23_17h01.00.187,run,2024.2.4,None,2025-10-23 17h01.06.624979 +0800,
320,0,320,0,0,0,0,0,0,0,0,320,0,320,0,3.6344416000065394,,,,,,,,,,,,,3.6292294999875594,3.629275699990103,,,,557080,001,2025-10-23_17h01.00.187,run,2024.2.4,None,2025-10-23 17h01.06.624979 +0800,
321,0,321,0,0,0,0,0,0,0,0,321,0,321,0,3.6344416000065394,,,,,,,,,,,,,3.630288799991831,3.634606100007659,3.6344416000065394,3.6344416000065394,3.6344416000065394,557080,001,2025-10-23_17h01.00.187,run,2024.2.4,None,2025-10-23 17h01.06.624979 +0800,
322,0,322,0,0,0,0,0,0,0,0,322,0,322,0,3.642936299991561,,,,,,,,,,,,,3.6354171999846585,3.6354491999954917,,,,557080,001,2025-10-23_17h01.00.187,run,2024.2.4,None,2025-10-23 17h01.06.624979 +0800,
323,0,323,0,0,0,0,0,0,0,0,323,0,323,0,3.642936299991561,,,,,,,,,,,,,3.6364610999880824,3.636492499994347,,,,557080,001,2025-10-23_17h01.00.187,run,2024.2.4,None,2025-10-23 17h01.06.624979 +0800,
324,0,324,0,0,0,0,0,0,0,0,324,0,324,0,3.642936299991561,,,,,,,,,,,,,3.6372383999987505,3.6372701000072993,,,,557080,001,2025-10-23_17h01.00.187,run,2024.2.4,None,2025-10-23 17h01.06.624979 +0800,
325,0,325,0,0,0,0,0,0,0,0,325,0,325,0,3.642936299991561,,,,,,,,,,,,,3.638234799989732,3.6430590999952983,3.642936299991561,3.642936299991561,3.642936299991561,557080,001,2025-10-23_17h01.00.187,run,2024.2.4,None,2025-10-23 17h01.06.624979 +0800,
326,0,326,0,0,0,0,0,0,0,0,326,0,326,0,3.656208800006425,,,,,,,,,,,,,3.644474700005958,3.6445139999850653,,,,557080,001,2025-10-23_17h01.00.187,run,2024.2.4,None,2025-10-23 17h01.06.624979 +0800,
327,0,327,0,0,0,0,0,0,0,0,327,0,327,0,3.656208800006425,,,,,,,,,,,,,3.645305999991251,3.6453359999868553,,,,557080,001,2025-10-23_17h01.00.187,run,2024.2.4,None,2025-10-23 17h01.06.624979 +0800,
328,0,328,0,0,0,0,0,0,0,0,328,0,328,0,3.656208800006425,,,,,,,,,,,,,3.6462913999857847,3.6463212000089698,,,,557080,001,2025-10-23_17h01.00.187,run,2024.2.4,None,2025-10-23 17h01.06.624979 +0800,
329,0,329,0,0,0,0,0,0,0,0,329,0,329,0,3.656208800006425,,,,,,,,,,,,,3.6472914000041783,3.6473240999912377,,,,557080,001,2025-10-23_17h01.00.187,run,2024.2.4,None,2025-10-23 17h01.06.624979 +0800,
330,0,330,0,0,0,0,0,0,0,0,330,0,330,0,3.656208800006425,,,,,,,,,,,,,3.6484975999919698,3.6566172000020742,3.656208800006425,3.656208800006425,3.656208800006425,557080,001,2025-10-23_17h01.00.187,run,2024.2.4,None,2025-10-23 17h01.06.624979 +0800,
331,0,331,0,0,0,0,0,0,0,0,331,0,331,0,3.6674402999924496,,,,,,,,,,,,,3.657430499995826,3.657466500008013,,,,557080,001,2025-10-23_17h01.00.187,run,2024.2.4,None,2025-10-23 17h01.06.624979 +0800,
332,0,332,0,0,0,0,0,0,0,0,332,0,332,0,3.6674402999924496,,,,,,,,,,,,,3.6584671000018716,3.6584988000104204,,,,557080,001,2025-10-23_17h01.00.187,run,2024.2.4,None,2025-10-23 17h01.06.624979 +0800,
333,0,333,0,0,0,0,0,0,0,0,333,0,333,0,3.6674402999924496,,,,,,,,,,,,,3.659226999996463,3.6592547000036575,,,,557080,001,2025-10-23_17h01.00.187,run,2024.2.4,None,2025-10-23 17h01.06.624979 +0800,
334,0,334,0,0,0,0,0,0,0,0,334,0,334,0,3.6674402999924496,,,,,,,,,,,,,3.6604579999984708,3.660492700000759,,,,557080,001,2025-10-23_17h01.00.187,run,2024.2.4,None,2025-10-23 17h01.06.624979 +0800,
335,0,335,0,0,0,0,0,0,0,0,335,0,335,0,3.6674402999924496,,,,,,,,,,,,,3.6607976999948733,3.6608414000074845,,,,557080,001,2025-10-23_17h01.00.187,run,2024.2.4,None,2025-10-23 17h01.06.624979 +0800,
336,0,336,0,0,0,0,0,0,0,0,336,0,336,0,3.6674402999924496,,,,,,,,,,,,,3.6613973999919835,3.6614286999974865,,,,557080,001,2025-10-23_17h01.00.187,run,2024.2.4,None,2025-10-23 17h01.06.624979 +0800,
337,0,337,0,0,0,0,0,0,0,0,337,0,337,0,3.6674402999924496,,,,,,,,,,,,,3.6621999999915715,3.6676008999929763,3.6674402999924496,3.6674402999924496,3.6674402999924496,557080,001,2025-10-23_17h01.00.187,run,2024.2.4,None,2025-10-23 17h01.06.624979 +0800,
338,0,338,0,0,0,0,0,0,0,0,338,0,338,0,3.6797577000106685,,,,,,,,,,,,,3.6685903999896254,3.668619900010526,,,,557080,001,2025-10-23_17h01.00.187,run,2024.2.4,None,2025-10-23 17h01.06.624979 +0800,
339,0,339,0,0,0,0,0,0,0,0,339,0,339,0,3.6797577000106685,,,,,,,,,,,,,3.670145299984142,3.670202799985418,,,,557080,001,2025-10-23_17h01.00.187,run,2024.2.4,None,2025-10-23 17h01.06.624979 +0800,
340,0,340,0,0,0,0,0,0,0,0,340,0,340,0,3.6797577000106685,,,,,,,,,,,,,3.6713390999939293,3.6714017000049353,,,,557080,001,2025-10-23_17h01.00.187,run,2024.2.4,None,2025-10-23 17h01.06.624979 +0800,
341,0,341,0,0,0,0,0,0,0,0,341,0,341,0,3.6797577000106685,,,,,,,,,,,,,3.672228199982783,3.6722508000093512,,,,557080,001,2025-10-23_17h01.00.187,run,2024.2.4,None,2025-10-23 17h01.06.624979 +0800,
342,0,342,0,0,0,0,0,0,0,0,342,0,342,0,3.6797577000106685,,,,,,,,,,,,,3.6732665000017732,3.673312500002794,,,,557080,001,2025-10-23_17h01.00.187,run,2024.2.4,None,2025-10-23 17h01.06.624979 +0800,
343,0,343,0,0,0,0,0,0,0,0,343,0,343,0,3.6797577000106685,,,,,,,,,,,,,3.6741557999921497,3.679896799993003,3.6797577000106685,3.6797577000106685,3.6797577000106685,557080,001,2025-10-23_17h01.00.187,run,2024.2.4,None,2025-10-23 17h01.06.624979 +0800,
344,0,344,0,0,0,0,0,0,0,0,344,0,344,0,3.6921239999937825,,,,,,,,,,,,,3.681787899986375,3.6818262999877334,,,,557080,001,2025-10-23_17h01.00.187,run,2024.2.4,None,2025-10-23 17h01.06.624979 +0800,
345,0,345,0,0,0,0,0,0,0,0,345,0,345,0,3.6921239999937825,,,,,,,,,,,,,3.6825673999846913,3.6826159000047483,,,,557080,001,2025-10-23_17h01.00.187,run,2024.2.4,None,2025-10-23 17h01.06.624979 +0800,
346,0,346,0,0,0,0,0,0,0,0,346,0,346,0,3.6921239999937825,,,,,,,,,,,,,3.6833961000083946,3.6834340000059456,,,,557080,001,2025-10-23_17h01.00.187,run,2024.2.4,None,2025-10-23 17h01.06.624979 +0800,
347,0,347,0,0,0,0,0,0,0,0,347,0,347,0,3.6921239999937825,,,,,,,,,,,,,3.6842102000082377,3.684235599997919,,,,557080,001,2025-10-23_17h01.00.187,run,2024.2.4,None,2025-10-23 17h01.06.624979 +0800,
348,0,348,0,0,0,0,0,0,0,0,348,0,348,0,3.6921239999937825,,,,,,,,,,,,,3.685267399996519,3.685288499982562,,,,557080,001,2025-10-23_17h01.00.187,run,2024.2.4,None,2025-10-23 17h01.06.624979 +0800,
349,0,349,0,0,0,0,0,0,0,0,349,0,349,0,3.6921239999937825,,,,,,,,,,,,,3.686286000011023,3.6925940999935847,3.6921239999937825,3.6921239999937825,3.6921239999937825,557080,001,2025-10-23_17h01.00.187,run,2024.2.4,None,2025-10-23 17h01.06.624979 +0800,
350,0,350,0,0,0,0,0,0,0,0,350,0,350,0,3.70641230000183,,,,,,,,,,,,,3.693525499984389,3.6935566999891307,,,,557080,001,2025-10-23_17h01.00.187,run,2024.2.4,None,2025-10-23 17h01.06.624979 +0800,
351,0,351,0,0,0,0,0,0,0,0,351,0,351,0,3.70641230000183,,,,,,,,,,,,,3.6945036000106484,3.694564100005664,,,,557080,001,2025-10-23_17h01.00.187,run,2024.2.4,None,2025-10-23 17h01.06.624979 +0800,
352,0,352,0,0,0,0,0,0,0,0,352,0,352,0,3.70641230000183,,,,,,,,,,,,,3.6952987000113353,3.695328800007701,,,,557080,001,2025-10-23_17h01.00.187,run,2024.2.4,None,2025-10-23 17h01.06.624979 +0800,
353,0,353,0,0,0,0,0,0,0,0,353,0,353,0,3.70641230000183,,,,,,,,,,,,,3.6964519000030123,3.6964835000107996,,,,557080,001,2025-10-23_17h01.00.187,run,2024.2.4,None,2025-10-23 17h01.06.624979 +0800,
354,0,354,0,0,0,0,0,0,0,0,354,0,354,0,3.70641230000183,,,,,,,,,,,,,3.697442200005753,3.6974702999868896,,,,557080,001,2025-10-23_17h01.00.187,run,2024.2.4,None,2025-10-23 17h01.06.624979 +0800,
355,0,355,0,0,0,0,0,0,0,0,355,0,355,0,3.70641230000183,,,,,,,,,,,,,3.6985558999876957,3.7065723999985494,3.70641230000183,3.70641230000183,3.70641230000183,557080,001,2025-10-23_17h01.00.187,run,2024.2.4,None,2025-10-23 17h01.06.624979 +0800,
356,0,356,0,0,0,0,0,0,0,0,356,0,356,0,3.721503200009465,,,,,,,,,,,,,3.707586900010938,3.7076215999841224,,,,557080,001,2025-10-23_17h01.00.187,run,2024.2.4,None,2025-10-23 17h01.06.624979 +0800,
357,0,357,0,0,0,0,0,0,0,0,357,0,357,0,3.721503200009465,,,,,,,,,,,,,3.7084011999832,3.7084369999938644,,,,557080,001,2025-10-23_17h01.00.187,run,2024.2.4,None,2025-10-23 17h01.06.624979 +0800,
358,0,358,0,0,0,0,0,0,0,0,358,0,358,0,3.721503200009465,,,,,,,,,,,,,3.7097601999994367,3.709810500004096,,,,557080,001,2025-10-23_17h01.00.187,run,2024.2.4,None,2025-10-23 17h01.06.624979 +0800,
359,0,359,0,0,0,0,0,0,0,0,359,0,359,0,3.721503200009465,,,,,,,,,,,,,3.710464100004174,3.71050399998785,,,,557080,001,2025-10-23_17h01.00.187,run,2024.2.4,None,2025-10-23 17h01.06.624979 +0800,
360,0,360,0,0,0,0,0,0,0,0,360,0,360,0,3.721503200009465,,,,,,,,,,,,,3.7113356000045314,3.7113660000031814,,,,557080,001,2025-10-23_17h01.00.187,run,2024.2.4,None,2025-10-23 17h01.06.624979 +0800,
361,0,361,0,0,0,0,0,0,0,0,361,0,361,0,3.721503200009465,,,,,,,,,,,,,3.7121938999916892,3.7122226000064984,,,,557080,001,2025-10-23_17h01.00.187,run,2024.2.4,None,2025-10-23 17h01.06.624979 +0800,
362,0,362,0,0,0,0,0,0,0,0,362,0,362,0,3.721503200009465,,,,,,,,,,,,,3.713267499988433,3.7132930000079796,,,,557080,001,2025-10-23_17h01.00.187,run,2024.2.4,None,2025-10-23 17h01.06.624979 +0800,
363,0,363,0,0,0,0,0,0,0,0,363,0,363,0,3.721503200009465,,,,,,,,,,,,,3.714292699994985,3.7216526999836788,3.721503200009465,3.721503200009465,3.721503200009465,557080,001,2025-10-23_17h01.00.187,run,2024.2.4,None,2025-10-23 17h01.06.624979 +0800,
364,0,364,0,0,0,0,0,0,0,0,364,0,364,0,3.7383006000018213,,,,,,,,,,,,,3.722428300010506,3.7224581000045873,,,,557080,001,2025-10-23_17h01.00.187,run,2024.2.4,None,2025-10-23 17h01.06.624979 +0800,
365,0,365,0,0,0,0,0,0,0,0,365,0,365,0,3.7383006000018213,,,,,,,,,,,,,3.7235367000102997,3.723574900010135,,,,557080,001,2025-10-23_17h01.00.187,run,2024.2.4,None,2025-10-23 17h01.06.624979 +0800,
366,0,366,0,0,0,0,0,0,0,0,366,0,366,0,3.7383006000018213,,,,,,,,,,,,,3.7244871000002604,3.724521800002549,,,,557080,001,2025-10-23_17h01.00.187,run,2024.2.4,None,2025-10-23 17h01.06.624979 +0800,
367,0,367,0,0,0,0,0,0,0,0,367,0,367,0,3.7383006000018213,,,,,,,,,,,,,3.7253300999873318,3.7253544999985024,,,,557080,001,2025-10-23_17h01.00.187,run,2024.2.4,None,2025-10-23 17h01.06.624979 +0800,
368,0,368,0,0,0,0,0,0,0,0,368,0,368,0,3.7383006000018213,,,,,,,,,,,,,3.726304399984656,3.726333500002511,,,,557080,001,2025-10-23_17h01.00.187,run,2024.2.4,None,2025-10-23 17h01.06.624979 +0800,
369,0,369,0,0,0,0,0,0,0,0,369,0,369,0,3.7383006000018213,,,,,,,,,,,,,3.7272985999879893,3.727334499999415,,,,557080,001,2025-10-23_17h01.00.187,run,2024.2.4,None,2025-10-23 17h01.06.624979 +0800,
370,0,370,0,0,0,0,0,0,0,0,370,0,370,0,3.7383006000018213,,,,,,,,,,,,,3.7284255999838933,3.738555699994322,3.7383006000018213,3.7383006000018213,3.7383006000018213,557080,001,2025-10-23_17h01.00.187,run,2024.2.4,None,2025-10-23 17h01.06.624979 +0800,
371,0,371,0,0,0,0,0,0,0,0,371,0,371,0,3.755971899983706,,,,,,,,,,,,,3.7392113000096288,3.7392421000113245,,,,557080,001,2025-10-23_17h01.00.187,run,2024.2.4,None,2025-10-23 17h01.06.624979 +0800,
372,0,372,0,0,0,0,0,0,0,0,372,0,372,0,3.755971899983706,,,,,,,,,,,,,3.740169500000775,3.740199899999425,,,,557080,001,2025-10-23_17h01.00.187,run,2024.2.4,None,2025-10-23 17h01.06.624979 +0800,
373,0,373,0,0,0,0,0,0,0,0,373,0,373,0,3.755971899983706,,,,,,,,,,,,,3.7411888999922667,3.7412169000017457,,,,557080,001,2025-10-23_17h01.00.187,run,2024.2.4,None,2025-10-23 17h01.06.624979 +0800,
374,0,374,0,0,0,0,0,0,0,0,374,0,374,0,3.755971899983706,,,,,,,,,,,,,3.742278299992904,3.742305799998576,,,,557080,001,2025-10-23_17h01.00.187,run,2024.2.4,None,2025-10-23 17h01.06.624979 +0800,
375,0,375,0,0,0,0,0,0,0,0,375,0,375,0,3.755971899983706,,,,,,,,,,,,,3.743216900009429,3.7432453999936115,,,,557080,001,2025-10-23_17h01.00.187,run,2024.2.4,None,2025-10-23 17h01.06.624979 +0800,
376,0,376,0,0,0,0,0,0,0,0,376,0,376,0,3.755971899983706,,,,,,,,,,,,,3.7444053000072017,3.744437999994261,,,,557080,001,2025-10-23_17h01.00.187,run,2024.2.4,None,2025-10-23 17h01.06.624979 +0800,
377,0,377,0,0,0,0,0,0,0,0,377,0,377,0,3.755971899983706,,,,,,,,,,,,,3.745430299983127,3.7454604000085965,,,,557080,001,2025-10-23_17h01.00.187,run,2024.2.4,None,2025-10-23 17h01.06.624979 +0800,
378,0,378,0,0,0,0,0,0,0,0,378,0,378,0,3.755971899983706,,,,,,,,,,,,,3.7462015000055544,3.7462245000060648,,,,557080,001,2025-10-23_17h01.00.187,run,2024.2.4,None,2025-10-23 17h01.06.624979 +0800,
379,0,379,0,0,0,0,0,0,0,0,379,0,379,0,3.755971899983706,,,,,,,,,,,,,3.747258499992313,3.7472821999981534,,,,557080,001,2025-10-23_17h01.00.187,run,2024.2.4,None,2025-10-23 17h01.06.624979 +0800,
380,0,380,0,0,0,0,0,0,0,0,380,0,380,0,3.755971899983706,,,,,,,,,,,,,3.748461799987126,3.756332499993732,3.755971899983706,3.755971899983706,3.755971899983706,557080,001,2025-10-23_17h01.00.187,run,2024.2.4,None,2025-10-23 17h01.06.624979 +0800,
381,0,381,0,0,0,0,0,0,0,0,381,0,381,0,3.772324399993522,,,,,,,,,,,,,3.7575703999900725,3.7576084999891464,,,,557080,001,2025-10-23_17h01.00.187,run,2024.2.4,None,2025-10-23 17h01.06.624979 +0800,
382,0,382,0,0,0,0,0,0,0,0,382,0,382,0,3.772324399993522,,,,,,,,,,,,,3.758254299988039,3.7582896999956574,,,,557080,001,2025-10-23_17h01.00.187,run,2024.2.4,None,2025-10-23 17h01.06.624979 +0800,
383,0,383,0,0,0,0,0,0,0,0,383,0,383,0,3.772324399993522,,,,,,,,,,,,,3.7594818999932613,3.7595114999858197,,,,557080,001,2025-10-23_17h01.00.187,run,2024.2.4,None,2025-10-23 17h01.06.624979 +0800,
384,0,384,0,0,0,0,0,0,0,0,384,0,384,0,3.772324399993522,,,,,,,,,,,,,3.760291499987943,3.7603195999981835,,,,557080,001,2025-10-23_17h01.00.187,run,2024.2.4,None,2025-10-23 17h01.06.624979 +0800,
385,0,385,0,0,0,0,0,0,0,0,385,0,385,0,3.772324399993522,,,,,,,,,,,,,3.761287600005744,3.7613175000005867,,,,557080,001,2025-10-23_17h01.00.187,run,2024.2.4,None,2025-10-23 17h01.06.624979 +0800,
386,0,386,0,0,0,0,0,0,0,0,386,0,386,0,3.772324399993522,,,,,,,,,,,,,3.762398899998516,3.76242449998972,,,,557080,001,2025-10-23_17h01.00.187,run,2024.2.4,None,2025-10-23 17h01.06.624979 +0800,
387,0,387,0,0,0,0,0,0,0,0,387,0,387,0,3.772324399993522,,,,,,,,,,,,,3.7633443000086118,3.763369699998293,,,,557080,001,2025-10-23_17h01.00.187,run,2024.2.4,None,2025-10-23 17h01.06.624979 +0800,
388,0,388,0,0,0,0,0,0,0,0,388,0,388,0,3.772324399993522,,,,,,,,,,,,,3.764384699985385,3.7724928999959957,3.772324399993522,3.772324399993522,3.772324399993522,557080,001,2025-10-23_17h01.00.187,run,2024.2.4,None,2025-10-23 17h01.06.624979 +0800,
389,0,389,0,0,0,0,0,0,0,0,389,0,389,0,3.7881309000076726,,,,,,,,,,,,,3.7729308999842033,3.7729588999936823,,,,557080,001,2025-10-23_17h01.00.187,run,2024.2.4,None,2025-10-23 17h01.06.624979 +0800,
390,0,390,0,0,0,0,0,0,0,0,390,0,390,0,3.7881309000076726,,,,,,,,,,,,,3.7733850000076927,3.7734193000069354,,,,557080,001,2025-10-23_17h01.00.187,run,2024.2.4,None,2025-10-23 17h01.06.624979 +0800,
391,0,391,0,0,0,0,0,0,0,0,391,0,391,0,3.7881309000076726,,,,,,,,,,,,,3.774348500010092,3.7743866000091657,,,,557080,001,2025-10-23_17h01.00.187,run,2024.2.4,None,2025-10-23 17h01.06.624979 +0800,
392,0,392,0,0,0,0,0,0,0,0,392,0,392,0,3.7881309000076726,,,,,,,,,,,,,3.7754423999867868,3.7754698999924585,,,,557080,001,2025-10-23_17h01.00.187,run,2024.2.4,None,2025-10-23 17h01.06.624979 +0800,
393,0,393,0,0,0,0,0,0,0,0,393,0,393,0,3.7881309000076726,,,,,,,,,,,,,3.7765364999941085,3.7765647000051104,,,,557080,001,2025-10-23_17h01.00.187,run,2024.2.4,None,2025-10-23 17h01.06.624979 +0800,
394,0,394,0,0,0,0,0,0,0,0,394,0,394,0,3.7881309000076726,,,,,,,,,,,,,3.7775916999962647,3.7776217999926303,,,,557080,001,2025-10-23_17h01.00.187,run,2024.2.4,None,2025-10-23 17h01.06.624979 +0800,
395,0,395,0,0,0,0,0,0,0,0,395,0,395,0,3.7881309000076726,,,,,,,,,,,,,3.7784904000000097,3.7883123999927193,3.7881309000076726,3.7881309000076726,3.7881309000076726,557080,001,2025-10-23_17h01.00.187,run,2024.2.4,None,2025-10-23 17h01.06.624979 +0800,
396,0,396,0,0,0,0,0,0,0,0,396,0,396,0,3.8059605000016745,,,,,,,,,,,,,3.789584999991348,3.7896145999839064,,,,557080,001,2025-10-23_17h01.00.187,run,2024.2.4,None,2025-10-23 17h01.06.624979 +0800,
397,0,397,0,0,0,0,0,0,0,0,397,0,397,0,3.8059605000016745,,,,,,,,,,,,,3.7909407999832183,3.790989900007844,,,,557080,001,2025-10-23_17h01.00.187,run,2024.2.4,None,2025-10-23 17h01.06.624979 +0800,
398,0,398,0,0,0,0,0,0,0,0,398,0,398,0,3.8059605000016745,,,,,,,,,,,,,3.792312600009609,3.7923399999854155,,,,557080,001,2025-10-23_17h01.00.187,run,2024.2.4,None,2025-10-23 17h01.06.624979 +0800,
399,0,399,0,0,0,0,0,0,0,0,399,0,399,0,3.8059605000016745,,,,,,,,,,,,,3.793373699998483,3.7933955999906175,,,,557080,001,2025-10-23_17h01.00.187,run,2024.2.4,None,2025-10-23 17h01.06.624979 +0800,
400,0,400,0,0,0,0,0,0,0,0,400,0,400,0,3.8059605000016745,,,,,,,,,,,,,3.794591499987291,3.7946240000019316,,,,557080,001,2025-10-23_17h01.00.187,run,2024.2.4,None,2025-10-23 17h01.06.624979 +0800,
401,0,401,0,0,0,0,0,0,0,0,401,0,401,0,3.8059605000016745,,,,,,,,,,,,,3.7952315000002272,3.795269800000824,,,,557080,001,2025-10-23_17h01.00.187,run,2024.2.4,None,2025-10-23 17h01.06.624979 +0800,
402,0,402,0,0,0,0,0,0,0,0,402,0,402,0,3.8059605000016745,,,,,,,,,,,,,3.796324099996127,3.796353399986401,,,,557080,001,2025-10-23_17h01.00.187,run,2024.2.4,None,2025-10-23 17h01.06.624979 +0800,
403,0,403,0,0,0,0,0,0,0,0,403,0,403,0,3.8059605000016745,,,,,,,,,,,,,3.797355599992443,3.7973842000064906,,,,557080,001,2025-10-23_17h01.00.187,run,2024.2.4,None,2025-10-23 17h01.06.624979 +0800,
404,0,404,0,0,0,0,0,0,0,0,404,0,404,0,3.8059605000016745,,,,,,,,,,,,,3.7985556999919936,3.798588200006634,,,,557080,001,2025-10-23_17h01.00.187,run,2024.2.4,None,2025-10-23 17h01.06.624979 +0800,
405,0,405,0,0,0,0,0,0,0,0,405,0,405,0,3.8059605000016745,,,,,,,,,,,,,3.799527900002431,3.7995632000092883,,,,557080,001,2025-10-23_17h01.00.187,run,2024.2.4,None,2025-10-23 17h01.06.624979 +0800,
406,0,406,0,0,0,0,0,0,0,0,406,0,406,0,3.8059605000016745,,,,,,,,,,,,,3.80036399999517,3.8061190999869723,3.8059605000016745,3.8059605000016745,3.8059605000016745,557080,001,2025-10-23_17h01.00.187,run,2024.2.4,None,2025-10-23 17h01.06.624979 +0800,
407,0,407,0,0,0,0,0,0,0,0,407,0,407,0,3.8176784999959636,,,,,,,,,,,,,3.8078422999824397,3.8078793000022415,,,,557080,001,2025-10-23_17h01.00.187,run,2024.2.4,None,2025-10-23 17h01.06.624979 +0800,
408,0,408,0,0,0,0,0,0,0,0,408,0,408,0,3.8176784999959636,,,,,,,,,,,,,3.808642999996664,3.808680199988885,,,,557080,001,2025-10-23_17h01.00.187,run,2024.2.4,None,2025-10-23 17h01.06.624979 +0800,
409,0,409,0,0,0,0,0,0,0,0,409,0,409,0,3.8176784999959636,,,,,,,,,,,,,3.809437399992021,3.809464999998454,,,,557080,001,2025-10-23_17h01.00.187,run,2024.2.4,None,2025-10-23 17h01.06.624979 +0800,
410,0,410,0,0,0,0,0,0,0,0,410,0,410,0,3.8176784999959636,,,,,,,,,,,,,3.8104484000068624,3.8104726999881677,,,,557080,001,2025-10-23_17h01.00.187,run,2024.2.4,None,2025-10-23 17h01.06.624979 +0800,
411,0,411,0,0,0,0,0,0,0,0,411,0,411,0,3.8176784999959636,,,,,,,,,,,,,3.811464900005376,3.811495500005549,,,,557080,001,2025-10-23_17h01.00.187,run,2024.2.4,None,2025-10-23 17h01.06.624979 +0800,
412,0,412,0,0,0,0,0,0,0,0,412,0,412,0,3.8176784999959636,,,,,,,,,,,,,3.812386300007347,3.818221599998651,3.8176784999959636,3.8176784999959636,3.8176784999959636,557080,001,2025-10-23_17h01.00.187,run,2024.2.4,None,2025-10-23 17h01.06.624979 +0800,
413,0,413,0,0,0,0,0,0,0,0,413,0,413,0,3.8299977999995463,,,,,,,,,,,,,3.8196795000112616,3.819730299990624,,,,557080,001,2025-10-23_17h01.00.187,run,2024.2.4,None,2025-10-23 17h01.06.624979 +0800,
414,0,414,0,0,0,0,0,0,0,0,414,0,414,0,3.8299977999995463,,,,,,,,,,,,,3.8207094999961555,3.820764100004453,,,,557080,001,2025-10-23_17h01.00.187,run,2024.2.4,None,2025-10-23 17h01.06.624979 +0800,
415,0,415,0,0,0,0,0,0,0,0,415,0,415,0,3.8299977999995463,,,,,,,,,,,,,3.821558700001333,3.821601000003284,,,,557080,001,2025-10-23_17h01.00.187,run,2024.2.4,None,2025-10-23 17h01.06.624979 +0800,
416,0,416,0,0,0,0,0,0,0,0,416,0,416,0,3.8299977999995463,,,,,,,,,,,,,3.8225223000044934,3.822564500005683,,,,557080,001,2025-10-23_17h01.00.187,run,2024.2.4,None,2025-10-23 17h01.06.624979 +0800,
417,0,417,0,0,0,0,0,0,0,0,417,0,417,0,3.8299977999995463,,,,,,,,,,,,,3.8232253000023775,3.823259299999336,,,,557080,001,2025-10-23_17h01.00.187,run,2024.2.4,None,2025-10-23 17h01.06.624979 +0800,
418,0,418,0,0,0,0,0,0,0,0,418,0,418,0,3.8299977999995463,,,,,,,,,,,,,3.8243238999857567,3.8301644999883138,3.8299977999995463,3.8299977999995463,3.8299977999995463,557080,001,2025-10-23_17h01.00.187,run,2024.2.4,None,2025-10-23 17h01.06.624979 +0800,
419,0,419,0,0,0,0,0,0,0,0,419,0,419,0,3.8473049000022,,,,,,,,,,,,,3.8317027000011876,3.8317499999830034,,,,557080,001,2025-10-23_17h01.00.187,run,2024.2.4,None,2025-10-23 17h01.06.624979 +0800,
420,0,420,0,0,0,0,0,0,0,0,420,0,420,0,3.8473049000022,,,,,,,,,,,,,3.832457099983003,3.832499199983431,,,,557080,001,2025-10-23_17h01.00.187,run,2024.2.4,None,2025-10-23 17h01.06.624979 +0800,
421,0,421,0,0,0,0,0,0,0,0,421,0,421,0,3.8473049000022,,,,,,,,,,,,,3.8335948000021745,3.833632599998964,,,,557080,001,2025-10-23_17h01.00.187,run,2024.2.4,None,2025-10-23 17h01.06.624979 +0800,
422,0,422,0,0,0,0,0,0,0,0,422,0,422,0,3.8473049000022,,,,,,,,,,,,,3.8343027000082657,3.8343301999848336,,,,557080,001,2025-10-23_17h01.00.187,run,2024.2.4,None,2025-10-23 17h01.06.624979 +0800,
423,0,423,0,0,0,0,0,0,0,0,423,0,423,0,3.8473049000022,,,,,,,,,,,,,3.835408599989023,3.8354407000006177,,,,557080,001,2025-10-23_17h01.00.187,run,2024.2.4,None,2025-10-23 17h01.06.624979 +0800,
424,0,424,0,0,0,0,0,0,0,0,424,0,424,0,3.8473049000022,,,,,,,,,,,,,3.8364069999952335,3.8474855000094976,3.8473049000022,3.8473049000022,3.8473049000022,557080,001,2025-10-23_17h01.00.187,run,2024.2.4,None,2025-10-23 17h01.06.624979 +0800,
425,0,425,0,0,0,0,0,0,0,0,425,0,425,0,3.86414039999363,,,,,,,,,,,,,3.848648699990008,3.848701399983838,,,,557080,001,2025-10-23_17h01.00.187,run,2024.2.4,None,2025-10-23 17h01.06.624979 +0800,
426,0,426,0,0,0,0,0,0,0,0,426,0,426,0,3.86414039999363,,,,,,,,,,,,,3.8492163000046276,3.8492534999968484,,,,557080,001,2025-10-23_17h01.00.187,run,2024.2.4,None,2025-10-23 17h01.06.624979 +0800,
427,0,427,0,0,0,0,0,0,0,0,427,0,427,0,3.86414039999363,,,,,,,,,,,,,3.8504408999870066,3.850473900005454,,,,557080,001,2025-10-23_17h01.00.187,run,2024.2.4,None,2025-10-23 17h01.06.624979 +0800,
428,0,428,0,0,0,0,0,0,0,0,428,0,428,0,3.86414039999363,,,,,,,,,,,,,3.8512361999892164,3.8512597999942955,,,,557080,001,2025-10-23_17h01.00.187,run,2024.2.4,None,2025-10-23 17h01.06.624979 +0800,
429,0,429,0,0,0,0,0,0,0,0,429,0,429,0,3.86414039999363,,,,,,,,,,,,,3.8524089999846183,3.8524409999954514,,,,557080,001,2025-10-23_17h01.00.187,run,2024.2.4,None,2025-10-23 17h01.06.624979 +0800,
430,0,430,0,0,0,0,0,0,0,0,430,0,430,0,3.86414039999363,,,,,,,,,,,,,3.8533591000013985,3.853391799988458,,,,557080,001,2025-10-23_17h01.00.187,run,2024.2.4,None,2025-10-23 17h01.06.624979 +0800,
431,0,431,0,0,0,0,0,0,0,0,431,0,431,0,3.86414039999363,,,,,,,,,,,,,3.8542356000107247,3.854257900005905,,,,557080,001,2025-10-23_17h01.00.187,run,2024.2.4,None,2025-10-23 17h01.06.624979 +0800,
432,0,432,0,0,0,0,0,0,0,0,432,0,432,0,3.86414039999363,,,,,,,,,,,,,3.855275599984452,3.855302699987078,,,,557080,001,2025-10-23_17h01.00.187,run,2024.2.4,None,2025-10-23 17h01.06.624979 +0800,
433,0,433,0,0,0,0,0,0,0,0,433,0,433,0,3.86414039999363,,,,,,,,,,,,,3.8563510999956634,3.8564032999856863,,,,557080,001,2025-10-23_17h01.00.187,run,2024.2.4,None,2025-10-23 17h01.06.624979 +0800,
434,0,434,0,0,0,0,0,0,0,0,434,0,434,0,3.86414039999363,,,,,,,,,,,,,3.8573143999965396,3.8573436999868136,,,,557080,001,2025-10-23_17h01.00.187,run,2024.2.4,None,2025-10-23 17h01.06.624979 +0800,
435,0,435,0,0,0,0,0,0,0,0,435,0,435,0,3.86414039999363,,,,,,,,,,,,,3.8583343999926,3.8648761000076775,3.86414039999363,3.86414039999363,3.86414039999363,557080,001,2025-10-23_17h01.00.187,run,2024.2.4,None,2025-10-23 17h01.06.624979 +0800,
436,0,436,0,0,0,0,0,0,0,0,436,0,436,0,3.875484399992274,,,,,,,,,,,,,3.86554860000615,3.8655870000075083,,,,557080,001,2025-10-23_17h01.00.187,run,2024.2.4,None,2025-10-23 17h01.06.624979 +0800,
437,0,437,0,0,0,0,0,0,0,0,437,0,437,0,3.875484399992274,,,,,,,,,,,,,3.866457600001013,3.866490699991118,,,,557080,001,2025-10-23_17h01.00.187,run,2024.2.4,None,2025-10-23 17h01.06.624979 +0800,
438,0,438,0,0,0,0,0,0,0,0,438,0,438,0,3.875484399992274,,,,,,,,,,,,,3.8673286999983247,3.867353200010257,,,,557080,001,2025-10-23_17h01.00.187,run,2024.2.4,None,2025-10-23 17h01.06.624979 +0800,
439,0,439,0,0,0,0,0,0,0,0,439,0,439,0,3.875484399992274,,,,,,,,,,,,,3.8683394999825396,3.868366299982881,,,,557080,001,2025-10-23_17h01.00.187,run,2024.2.4,None,2025-10-23 17h01.06.624979 +0800,
440,0,440,0,0,0,0,0,0,0,0,440,0,440,0,3.875484399992274,,,,,,,,,,,,,3.8694344999967143,3.8694675999868196,,,,557080,001,2025-10-23_17h01.00.187,run,2024.2.4,None,2025-10-23 17h01.06.624979 +0800,
441,0,441,0,0,0,0,0,0,0,0,441,0,441,0,3.875484399992274,,,,,,,,,,,,,3.870281100011198,3.8756140999903437,3.875484399992274,3.875484399992274,3.875484399992274,557080,001,2025-10-23_17h01.00.187,run,2024.2.4,None,2025-10-23 17h01.06.624979 +0800,
442,0,442,0,0,0,0,0,0,0,0,442,0,442,0,3.889790699991863,,,,,,,,,,,,,3.8764539000112563,3.876485299988417,,,,557080,001,2025-10-23_17h01.00.187,run,2024.2.4,None,2025-10-23 17h01.06.624979 +0800,
443,0,443,0,0,0,0,0,0,0,0,443,0,443,0,3.889790699991863,,,,,,,,,,,,,3.8775927000097,3.877625299995998,,,,557080,001,2025-10-23_17h01.00.187,run,2024.2.4,None,2025-10-23 17h01.06.624979 +0800,
444,0,444,0,0,0,0,0,0,0,0,444,0,444,0,3.889790699991863,,,,,,,,,,,,,3.8785612999927253,3.8786174999841023,,,,557080,001,2025-10-23_17h01.00.187,run,2024.2.4,None,2025-10-23 17h01.06.624979 +0800,
445,0,445,0,0,0,0,0,0,0,0,445,0,445,0,3.889790699991863,,,,,,,,,,,,,3.8793108999961987,3.879339799983427,,,,557080,001,2025-10-23_17h01.00.187,run,2024.2.4,None,2025-10-23 17h01.06.624979 +0800,
446,0,446,0,0,0,0,0,0,0,0,446,0,446,0,3.889790699991863,,,,,,,,,,,,,3.8803196999942884,3.889994099998148,3.889790699991863,3.889790699991863,3.889790699991863,557080,001,2025-10-23_17h01.00.187,run,2024.2.4,None,2025-10-23 17h01.06.624979 +0800,
447,0,447,0,0,0,0,0,0,0,0,447,0,447,0,3.904821100004483,,,,,,,,,,,,,3.8906191999849398,3.89065099999425,,,,557080,001,2025-10-23_17h01.00.187,run,2024.2.4,None,2025-10-23 17h01.06.624979 +0800,
448,0,448,0,0,0,0,0,0,0,0,448,0,448,0,3.904821100004483,,,,,,,,,,,,,3.891186499997275,3.8912111000099685,,,,557080,001,2025-10-23_17h01.00.187,run,2024.2.4,None,2025-10-23 17h01.06.624979 +0800,
449,0,449,0,0,0,0,0,0,0,0,449,0,449,0,3.904821100004483,,,,,,,,,,,,,3.8923668999923393,3.892402800003765,,,,557080,001,2025-10-23_17h01.00.187,run,2024.2.4,None,2025-10-23 17h01.06.624979 +0800,
450,0,450,0,0,0,0,0,0,0,0,450,0,450,0,3.904821100004483,,,,,,,,,,,,,3.893373099999735,3.893401499983156,,,,557080,001,2025-10-23_17h01.00.187,run,2024.2.4,None,2025-10-23 17h01.06.624979 +0800,
451,0,451,0,0,0,0,0,0,0,0,451,0,451,0,3.904821100004483,,,,,,,,,,,,,3.8945626000058837,3.89459879999049,,,,557080,001,2025-10-23_17h01.00.187,run,2024.2.4,None,2025-10-23 17h01.06.624979 +0800,
452,0,452,0,0,0,0,0,0,0,0,452,0,452,0,3.904821100004483,,,,,,,,,,,,,3.8952699000074062,3.895302399992943,,,,557080,001,2025-10-23_17h01.00.187,run,2024.2.4,None,2025-10-23 17h01.06.624979 +0800,
453,0,453,0,0,0,0,0,0,0,0,453,0,453,0,3.904821100004483,,,,,,,,,,,,,3.8966141999990214,3.8966425999824423,,,,557080,001,2025-10-23_17h01.00.187,run,2024.2.4,None,2025-10-23 17h01.06.624979 +0800,
454,0,454,0,0,0,0,0,0,0,0,454,0,454,0,3.904821100004483,,,,,,,,,,,,,3.8974040999892168,3.8974273999920115,,,,557080,001,2025-10-23_17h01.00.187,run,2024.2.4,None,2025-10-23 17h01.06.624979 +0800,
455,0,455,0,0,0,0,0,0,0,0,455,0,455,0,3.904821100004483,,,,,,,,,,,,,3.898835300002247,3.8988821000093594,,,,557080,001,2025-10-23_17h01.00.187,run,2024.2.4,None,2025-10-23 17h01.06.624979 +0800,
456,0,456,0,0,0,0,0,0,0,0,456,0,456,0,3.904821100004483,,,,,,,,,,,,,3.899454300000798,3.9049781000067014,3.904821100004483,3.904821100004483,3.904821100004483,557080,001,2025-10-23_17h01.00.187,run,2024.2.4,None,2025-10-23 17h01.06.624979 +0800,
457,0,457,0,0,0,0,0,0,0,0,457,0,457,0,3.92166520000319,,,,,,,,,,,,,3.9068217999883927,3.906861099996604,,,,557080,001,2025-10-23_17h01.00.187,run,2024.2.4,None,2025-10-23 17h01.06.624979 +0800,
458,0,458,0,0,0,0,0,0,0,0,458,0,458,0,3.92166520000319,,,,,,,,,,,,,3.907412000000477,3.907445099990582,,,,557080,001,2025-10-23_17h01.00.187,run,2024.2.4,None,2025-10-23 17h01.06.624979 +0800,
459,0,459,0,0,0,0,0,0,0,0,459,0,459,0,3.92166520000319,,,,,,,,,,,,,3.9083258000027854,3.908361200010404,,,,557080,001,2025-10-23_17h01.00.187,run,2024.2.4,None,2025-10-23 17h01.06.624979 +0800,
460,0,460,0,0,0,0,0,0,0,0,460,0,460,0,3.92166520000319,,,,,,,,,,,,,3.909329499991145,3.9093543000053614,,,,557080,001,2025-10-23_17h01.00.187,run,2024.2.4,None,2025-10-23 17h01.06.624979 +0800,
461,0,461,0,0,0,0,0,0,0,0,461,0,461,0,3.92166520000319,,,,,,,,,,,,,3.9103055000014137,3.9218441999983042,3.92166520000319,3.92166520000319,3.92166520000319,557080,001,2025-10-23_17h01.00.187,run,2024.2.4,None,2025-10-23 17h01.06.624979 +0800,
462,0,462,0,0,0,0,0,0,0,0,462,0,462,0,3.943057600001339,,,,,,,,,,,,,3.9225969999970403,3.9226302999886684,,,,557080,001,2025-10-23_17h01.00.187,run,2024.2.4,None,2025-10-23 17h01.06.624979 +0800,
463,0,463,0,0,0,0,0,0,0,0,463,0,463,0,3.943057600001339,,,,,,,,,,,,,3.9237691999878734,3.9238208000024315,,,,557080,001,2025-10-23_17h01.00.187,run,2024.2.4,None,2025-10-23 17h01.06.624979 +0800,
464,0,464,0,0,0,0,0,0,0,0,464,0,464,0,3.943057600001339,,,,,,,,,,,,,3.9243571999832056,3.9243881999864243,,,,557080,001,2025-10-23_17h01.00.187,run,2024.2.4,None,2025-10-23 17h01.06.624979 +0800,
465,0,465,0,0,0,0,0,0,0,0,465,0,465,0,3.943057600001339,,,,,,,,,,,,,3.9254319999890868,3.925458699988667,,,,557080,001,2025-10-23_17h01.00.187,run,2024.2.4,None,2025-10-23 17h01.06.624979 +0800,
466,0,466,0,0,0,0,0,0,0,0,466,0,466,0,3.943057600001339,,,,,,,,,,,,,3.926319999998668,3.926345099986065,,,,557080,001,2025-10-23_17h01.00.187,run,2024.2.4,None,2025-10-23 17h01.06.624979 +0800,
467,0,467,0,0,0,0,0,0,0,0,467,0,467,0,3.943057600001339,,,,,,,,,,,,,3.9278511999873444,3.9278824999928474,,,,557080,001,2025-10-23_17h01.00.187,run,2024.2.4,None,2025-10-23 17h01.06.624979 +0800,
468,0,468,0,0,0,0,0,0,0,0,468,0,468,0,3.943057600001339,,,,,,,,,,,,,3.929364399984479,3.929394999984652,,,,557080,001,2025-10-23_17h01.00.187,run,2024.2.4,None,2025-10-23 17h01.06.624979 +0800,
469,0,469,0,0,0,0,0,0,0,0,469,0,469,0,3.943057600001339,,,,,,,,,,,,,3.9302854999841657,3.930309599993052,,,,557080,001,2025-10-23_17h01.00.187,run,2024.2.4,None,2025-10-23 17h01.06.624979 +0800,
470,0,470,0,0,0,0,0,0,0,0,470,0,470,0,3.943057600001339,,,,,,,,,,,,,3.9313685999950394,3.9313929000054486,,,,557080,001,2025-10-23_17h01.00.187,run,2024.2.4,None,2025-10-23 17h01.06.624979 +0800,
471,0,471,0,0,0,0,0,0,0,0,471,0,471,0,3.943057600001339,,,,,,,,,,,,,3.9323966999945696,3.932427199993981,,,,557080,001,2025-10-23_17h01.00.187,run,2024.2.4,None,2025-10-23 17h01.06.624979 +0800,
472,0,472,0,0,0,0,0,0,0,0,472,0,472,0,3.943057600001339,,,,,,,,,,,,,3.933272599999327,3.933300800010329,,,,557080,001,2025-10-23_17h01.00.187,run,2024.2.4,None,2025-10-23 17h01.06.624979 +0800,
473,0,473,0,0,0,0,0,0,0,0,473,0,473,0,3.943057600001339,,,,,,,,,,,,,3.9344300999946427,3.943825199996354,3.943057600001339,3.943057600001339,3.943057600001339,557080,001,2025-10-23_17h01.00.187,run,2024.2.4,None,2025-10-23 17h01.06.624979 +0800,
474,0,474,0,0,0,0,0,0,0,0,474,0,474,0,3.9595344999979716,,,,,,,,,,,,,3.9450253999966662,3.9450909000006504,,,,557080,001,2025-10-23_17h01.00.187,run,2024.2.4,None,2025-10-23 17h01.06.624979 +0800,
475,0,475,0,0,0,0,0,0,0,0,475,0,475,0,3.9595344999979716,,,,,,,,,,,,,3.946424699999625,3.9464541999914218,,,,557080,001,2025-10-23_17h01.00.187,run,2024.2.4,None,2025-10-23 17h01.06.624979 +0800,
476,0,476,0,0,0,0,0,0,0,0,476,0,476,0,3.9595344999979716,,,,,,,,,,,,,3.9473397999827284,3.9473677999922074,,,,557080,001,2025-10-23_17h01.00.187,run,2024.2.4,None,2025-10-23 17h01.06.624979 +0800,
477,0,477,0,0,0,0,0,0,0,0,477,0,477,0,3.9595344999979716,,,,,,,,,,,,,3.9486093999876175,3.9486413999984507,,,,557080,001,2025-10-23_17h01.00.187,run,2024.2.4,None,2025-10-23 17h01.06.624979 +0800,
478,0,478,0,0,0,0,0,0,0,0,478,0,478,0,3.9595344999979716,,,,,,,,,,,,,3.9495805999904405,3.9496254000114277,,,,557080,001,2025-10-23_17h01.00.187,run,2024.2.4,None,2025-10-23 17h01.06.624979 +0800,
479,0,479,0,0,0,0,0,0,0,0,479,0,479,0,3.9595344999979716,,,,,,,,,,,,,3.950230099988403,3.950259300007019,,,,557080,001,2025-10-23_17h01.00.187,run,2024.2.4,None,2025-10-23 17h01.06.624979 +0800,
480,0,480,0,0,0,0,0,0,0,0,480,0,480,0,3.9595344999979716,,,,,,,,,,,,,3.9513311999908183,3.9513585999957286,,,,557080,001,2025-10-23_17h01.00.187,run,2024.2.4,None,2025-10-23 17h01.06.624979 +0800,
481,0,481,0,0,0,0,0,0,0,0,481,0,481,0,3.9595344999979716,,,,,,,,,,,,,3.952355199988233,3.9523872999998275,,,,557080,001,2025-10-23_17h01.00.187,run,2024.2.4,None,2025-10-23 17h01.06.624979 +0800,
482,0,482,0,0,0,0,0,0,0,0,482,0,482,0,3.9595344999979716,,,,,,,,,,,,,3.953482899989467,3.953512599982787,,,,557080,001,2025-10-23_17h01.00.187,run,2024.2.4,None,2025-10-23 17h01.06.624979 +0800,
483,0,483,0,0,0,0,0,0,0,0,483,0,483,0,3.9595344999979716,,,,,,,,,,,,,3.9544062000059057,3.959883000003174,3.9595344999979716,3.9595344999979716,3.9595344999979716,557080,001,2025-10-23_17h01.00.187,run,2024.2.4,None,2025-10-23 17h01.06.624979 +0800,
484,0,484,0,0,0,0,0,0,0,0,484,0,484,0,3.971507100010058,,,,,,,,,,,,,3.961496600008104,3.961538700008532,,,,557080,001,2025-10-23_17h01.00.187,run,2024.2.4,None,2025-10-23 17h01.06.624979 +0800,
485,0,485,0,0,0,0,0,0,0,0,485,0,485,0,3.971507100010058,,,,,,,,,,,,,3.962408299994422,3.9624394999991637,,,,557080,001,2025-10-23_17h01.00.187,run,2024.2.4,None,2025-10-23 17h01.06.624979 +0800,
486,0,486,0,0,0,0,0,0,0,0,486,0,486,0,3.971507100010058,,,,,,,,,,,,,3.963417799997842,3.9634520999970846,,,,557080,001,2025-10-23_17h01.00.187,run,2024.2.4,None,2025-10-23 17h01.06.624979 +0800,
487,0,487,0,0,0,0,0,0,0,0,487,0,487,0,3.971507100010058,,,,,,,,,,,,,3.9644152999971993,3.9644435000082012,,,,557080,001,2025-10-23_17h01.00.187,run,2024.2.4,None,2025-10-23 17h01.06.624979 +0800,
488,0,488,0,0,0,0,0,0,0,0,488,0,488,0,3.971507100010058,,,,,,,,,,,,,3.9653501999855507,3.9653822999971453,,,,557080,001,2025-10-23_17h01.00.187,run,2024.2.4,None,2025-10-23 17h01.06.624979 +0800,
489,0,489,0,0,0,0,0,0,0,0,489,0,489,0,3.971507100010058,,,,,,,,,,,,,3.966336899989983,3.9716526999836788,3.971507100010058,3.971507100010058,3.971507100010058,557080,001,2025-10-23_17h01.00.187,run,2024.2.4,None,2025-10-23 17h01.06.624979 +0800,
490,0,490,0,0,0,0,0,0,0,0,490,0,490,0,3.987834200001089,,,,,,,,,,,,,3.9723456999927294,3.9723761999921408,,,,557080,001,2025-10-23_17h01.00.187,run,2024.2.4,None,2025-10-23 17h01.06.624979 +0800,
491,0,491,0,0,0,0,0,0,0,0,491,0,491,0,3.987834200001089,,,,,,,,,,,,,3.9733930999937,3.9734366000047885,,,,557080,001,2025-10-23_17h01.00.187,run,2024.2.4,None,2025-10-23 17h01.06.624979 +0800,
492,0,492,0,0,0,0,0,0,0,0,492,0,492,0,3.987834200001089,,,,,,,,,,,,,3.9745287999976426,3.9745792000030633,,,,557080,001,2025-10-23_17h01.00.187,run,2024.2.4,None,2025-10-23 17h01.06.624979 +0800,
